<?xml version="1.0" encoding="UTF-8"?>
<ImplementationGuide
    xmlns="http://hl7.org/fhir">
    <id value="vrdr"/>
    <meta>
        <versionId value="361"/>
        <lastUpdated value="2021-08-08T16:44:14.274+00:00"/>
        <source value="#3qU4n3cr3DOKhl5p"/>
        <security>
            <system value="https://trifolia-fhir.lantanagroup.com/security"/>
            <code value="user^PNgAbFNH^write"/>
        </security>
        <security>
            <system value="https://trifolia-fhir.lantanagroup.com/security"/>
            <code value="user^PNgAbFNH^read"/>
        </security>
        <security>
            <system value="https://trifolia-fhir.lantanagroup.com/security"/>
            <code value="everyone^read"/>
        </security>
        <security>
            <system value="https://trifolia-fhir.lantanagroup.com/security"/>
            <code value="user^TKWZUCCU^read"/>
        </security>
        <security>
            <system value="https://trifolia-fhir.lantanagroup.com/security"/>
            <code value="user^dMG-NXHH^read"/>
        </security>
        <security>
            <system value="https://trifolia-fhir.lantanagroup.com/security"/>
            <code value="user^dMG-NXHH^write"/>
        </security>
    </meta>
    <contained>
        <DocumentReference>
            <id value="package-list"/>
            <status value="current"/>
            <type>
                <coding>
                    <code value="package-list"/>
                </coding>
            </type>
            <content>
                <attachment>
                    <contentType value="application/json"/>
                    <data value=""/>
                </attachment>
            </content>
        </DocumentReference>
    </contained>
    <contained>
        <DocumentReference>
            <id value="JldWFGQJ"/>
            <type>
                <coding>
                    <code value="ignore-warnings"/>
                </coding>
            </type>
            <content>
                <attachment>
                    <contentType value="text/plain"/>
                    <data value=""/>
                    <title value="ignoreWarnings.txt"/>
                </attachment>
            </content>
        </DocumentReference>
    </contained>
    <extension url="https://trifolia-on-fhir.lantanagroup.com/StructureDefinition/extension-ig-dependency">
        <extension url="https://trifolia-on-fhir.lantanagroup.com/StructureDefinition/extension-ig-dependency-version">
            <valueString value="2.0.0"/>
        </extension>
        <extension url="https://trifolia-on-fhir.lantanagroup.com/StructureDefinition/extension-ig-dependency-name">
            <valueString value="uscore"/>
        </extension>
        <extension url="https://trifolia-on-fhir.lantanagroup.com/StructureDefinition/extension-ig-dependency-location">
            <valueUri value="http://hl7.org/fhir/us/core"/>
        </extension>
    </extension>
    <extension url="https://trifolia-fhir.lantanagroup.com/stu3/StructureDefinition/extension-ig-package-id">
        <valueString value="hl7.fhir.us.vrdr"/>
    </extension>
    <extension url="https://trifolia-fhir.lantanagroup.com/StructureDefinition/extension-ig-package-list">
        <valueReference>
            <reference value="#package-list"/>
        </valueReference>
    </extension>
    <extension url="https://trifolia-fhir.lantanagroup.com/StructureDefinition/extension-ig-ignore-warnings">
        <valueReference>
            <reference value="#JldWFGQJ"/>
        </valueReference>
    </extension>
    <url value="http://hl7.org/fhir/us/vrdr/ImplementationGuide/vrdr"/>
    <version value="1.1.0"/>
    <name value="VRDR"/>
    <title value="Vital Records Death Reporting FHIR Implementation Guide"/>
    <status value="draft"/>
    <experimental value="false"/>
    <publisher value="Health Level Seven International"/>
    <contact>
        <name value="HL7 International - Public Health"/>
        <telecom>
            <system value="url"/>
            <value value="http://www.hl7.org/Special/committees/pher"/>
        </telecom>
    </contact>
    <contact>
        <name value="Cynthia Bush, Health Scientist (Informatics), CDC/National Center for Health Statistics"/>
        <telecom>
            <system value="email"/>
            <value value="pdz1@cdc.gov"/>
        </telecom>
    </contact>
    <contact>
        <name value="AbdulMalik Shakir, FHL7, President and Chief Informatics Scientist Hi3 Solutions"/>
        <telecom>
            <system value="email"/>
            <value value="abdulmalik.shakir@hi3solutions.com"/>
        </telecom>
    </contact>
    <description value="The VRDR FHIR IG provides guidance regarding the use of FHIR resources as a conduit for data required in the bidirectional exchange of mortality data between State-run Public Health Agencies (PHA) Vital Records offices and U.S. Centers for Disease Control and Prevention (CDC)/National Center for Health Statistics (NCHS).&#xA;&#xA;Bidirectional exchange of mortality data between PHA Vital Records offices and NCHS is essential to effective public health surveillance and emergency response efforts. Automation of the reporting process adds efficiencies that dramatically improves the efficacy of event response, data analysis, and evidence-based measurable prevention of the causes of death.&#xA;&#xA;The VRDR FHIR IG will provide guidance for the use of standard FHIR resources as a conduit for data required by vital records death reporting. The use of FHIR as a platform for automation of vital records death reporting is expected to improve existing automation by enabling wide-scale adoption and leveraging the potential of electronic health records and clinical decision support systems.&#xA;&#xA;The VRDR FHIR IG will lay a foundation for expansion of automated standards-driven information exchange to include tributary flows of information from entities such as physicians, medical examiners, coroners, funeral directors, and family members to public health agencies and between public health agencies and secondary users of detailed mortality data and aggregate statistics.&#xA;&#xA;This FHIR implementation guide is the primary work product of [project #1475](https://bit.ly/34DRIoA) &quot;Vital Records Mortality and Morbidity Reporting FHIR IG&quot; sponsored by the Health Level Seven (HL7) Public Health Work Group (PHWG). &#xA;&#xA;The scope of the project is to produce and ballot a Standard for Trail Use (STU) Fast Healthcare Interoperability Resources (FHIR) implementation guide (IG) for use in reporting of death events to the U.S. National Center for Health Statistics (NCHS) by State and Local Public Health Agencies (PHA). The VRDR FHIR IG is based upon FHIR R4. The VRDR FHIR IG was successfully balloted as a standard for trial use (STU) in May 2019.&#xA;&#xA;This is a U.S. Realm Specification. This guide and related materials are based on reporting specifications in U.S. jurisdictions. The data content of this IG are based upon the [U.S. Standard Certificate of Death](https://www.cdc.gov/nchs/data/dvs/DEATH11-03final-ACC.pdf)."/>
    <jurisdiction>
        <coding>
            <system value="urn:iso:std:iso:3166"/>
            <code value="US"/>
            <display value="United States of America"/>
        </coding>
        <text value="US Realm"/>
    </jurisdiction>
    <packageId value="hl7.fhir.us.vrdr"/>
    <fhirVersion value="4.0.1"/>
    <dependsOn>
        <extension url="https://trifolia-fhir.lantanagroup.com/r4/StructureDefinition/extension-ig-depends-on-location">
            <valueString value="http://hl7.org/fhir/us/core"/>
        </extension>
        <extension url="https://trifolia-fhir.lantanagroup.com/r4/StructureDefinition/extension-ig-depends-on-name">
            <valueString value="USCoreR4"/>
        </extension>
        <uri value="http://hl7.org/fhir/us/core/ImplementationGuide/hl7.fhir.us.core"/>
        <packageId value="hl7.fhir.us.core"/>
        <version value="3.1.0"/>
    </dependsOn>
    <dependsOn>
        <extension url="https://trifolia-fhir.lantanagroup.com/r4/StructureDefinition/extension-ig-depends-on-location">
            <valueString value="http://hl7.org/fhir/us/odh"/>
        </extension>
        <extension url="https://trifolia-fhir.lantanagroup.com/r4/StructureDefinition/extension-ig-depends-on-name">
            <valueString value="Occupational Data for Health"/>
        </extension>
        <uri value="http://hl7.org/fhir/us/odh/ImplementationGuide/hl7.fhir.us.odh"/>
        <packageId value="hl7.fhir.us.odh"/>
        <version value="1.0.0"/>
    </dependsOn>
    <definition>
        <grouping id="default">
            <name value="default"/>
        </grouping>
        <grouping id="DecedentDemographics">
            <name value="A. Decedent Demographics"/>
            <description value="Decedent Demographics is a profile group comprised of profiles containing decedent demographic data. Demographic data includes information about related persons (Mother, Father, and Spouse) and social determinants such as education level and usual occupation. The information in this profile group are provided by a decedent informant."/>
        </grouping>
        <grouping id="DeathInvestigation">
            <name value="B. Death Investigation"/>
            <description value="Death Investigation is a profile group comprised of profiles containing data obtained during the course of investigating a death. Many of these items are conditionally present in a death certification transaction depending on whether or not a autopsy was performed, an injury incident occurred, or a transportation event was involved."/>
        </grouping>
        <grouping id="DeathCertification">
            <name value="C. Death Certification"/>
            <description value="Death Certification is a profile group comprised of profiles containing data related to the primary concern of the VRDR IG, Death Certification. In this group the causes of death and the causal pathway are documented and attested to by a death certifier (coroner or medical examiner)."/>
        </grouping>
        <grouping id="DecedentDisposition">
            <name value="D. Decedent Disposition"/>
            <description value="Decedent Disposition is a profile group comprised of profiles containing data related to the disposition of the decedents remains. The data in this profile group is typically provided by the funeral home performing the disposition services. The content of this profile group is authenticated by the funeral home director."/>
        </grouping>
        <grouping id="Extensions">
            <name value="Extensions"/>
            <description value="Resources used to extend base FHIR resources to meet unique requirements of Vital Records Death Reporting."/>
        </grouping>
        <grouping id="VRDR-Instance-Examples">
            <name value="Instance Examples"/>
            <description value="A collection of VRDR FHIR IG resource profile instance examples."/>
        </grouping>
        <grouping id="Images">
            <name value="Images"/>
        </grouping>
        <resource>
            <extension url="https://trifolia-fhir.lantanagroup.com/StructureDefinition/extension-ig-resource-file-path">
                <valueString value="structuredefinition/VRDR-Decedent-Age.xml"/>
            </extension>
            <reference>
                <reference value="StructureDefinition/VRDR-Decedent-Age"/>
                <display value="Decedent's Age"/>
            </reference>
            <name value="Decedent's age"/>
            <description value="The Decedent Age resource represents the decedent's chronological age at the time of death. Age is derived as the difference in time between the decedent's death date and birth date. The VRDR Decedent Age profile builds upon the FHIR R4 Observation Resource."/>
            <exampleBoolean value="false"/>
            <groupingId value="DecedentDemographics"/>
        </resource>
        <resource>
            <extension url="https://trifolia-fhir.lantanagroup.com/StructureDefinition/extension-ig-resource-file-path">
                <valueString value="structuredefinition/VRDR-Decedent-Education-Level.xml"/>
            </extension>
            <reference>
                <reference value="StructureDefinition/VRDR-Decedent-Education-Level"/>
                <display value="Decedent's Education Level"/>
            </reference>
            <name value="Decedent's Education Level"/>
            <description value="The Decedent's Education Level resource represents the highest level of education achieved by the decedent. The VRDR Decedent's Education Level profile builds upon the FHIR Observation resource."/>
            <exampleBoolean value="false"/>
            <groupingId value="DecedentDemographics"/>
        </resource>
        <resource>
            <extension url="https://trifolia-fhir.lantanagroup.com/StructureDefinition/extension-ig-resource-file-path">
                <valueString value="structuredefinition/VRDR-Examiner-Contacted.xml"/>
            </extension>
            <reference>
                <reference value="StructureDefinition/VRDR-Examiner-Contacted"/>
                <display value="Examiner Contacted"/>
            </reference>
            <name value="Examiner Contacted"/>
            <description value="The Examiner Contacted resource represents an indication as to whether a medical examiner (or coroner) was contacted to conduct an investigation and certify the causes of death. The VRDR Examiner Contacted profile builds upon the FHIR R4 Observation resource."/>
            <exampleBoolean value="false"/>
            <groupingId value="DeathInvestigation"/>
        </resource>
        <resource>
            <extension url="https://trifolia-fhir.lantanagroup.com/StructureDefinition/extension-ig-resource-file-path">
                <valueString value="structuredefinition/VRDR-Disposition-Location.xml"/>
            </extension>
            <reference>
                <reference value="StructureDefinition/VRDR-Disposition-Location"/>
                <display value="Disposition Location"/>
            </reference>
            <name value="Disposition Location"/>
            <description value="The Disposition Location resource represents the place/location where the decedent's remains were disposed of. The VRDR Disposition Location profile builds upon the FHIR R4 Location resource."/>
            <exampleBoolean value="false"/>
            <groupingId value="DecedentDisposition"/>
        </resource>
        <resource>
            <extension url="https://trifolia-fhir.lantanagroup.com/StructureDefinition/extension-ig-resource-file-path">
                <valueString value="structuredefinition/VRDR-Decedent-Mother.xml"/>
            </extension>
            <reference>
                <reference value="StructureDefinition/VRDR-Decedent-Mother"/>
                <display value="Decedent's Mother"/>
            </reference>
            <name value="Decedent's Mother"/>
            <description value="The Decedent's Mother resource represents the maternal parent of the decedent. The VRDR Decedent Mother profile builds upon the FHIR R4 Related Person resource."/>
            <exampleBoolean value="false"/>
            <groupingId value="DecedentDemographics"/>
        </resource>
        <resource>
            <extension url="https://trifolia-fhir.lantanagroup.com/StructureDefinition/extension-ig-resource-file-path">
                <valueString value="structuredefinition/VRDR-Decedent-Pregnancy.xml"/>
            </extension>
            <reference>
                <reference value="StructureDefinition/VRDR-Decedent-Pregnancy"/>
                <display value="Decedent Pregnancy"/>
            </reference>
            <name value="Decedent Pregnancy"/>
            <description value="The Decedent Pregnancy resource provides an indication of the pregnancy status of the decedent. The VRDR Decedent Pregnancy profile builds upon the FHIR R4 Observation resource."/>
            <exampleBoolean value="false"/>
            <groupingId value="DeathInvestigation"/>
        </resource>
        <resource>
            <extension url="https://trifolia-fhir.lantanagroup.com/StructureDefinition/extension-ig-resource-file-path">
                <valueString value="structuredefinition/VRDR-Decedent-Spouse.xml"/>
            </extension>
            <reference>
                <reference value="StructureDefinition/VRDR-Decedent-Spouse"/>
                <display value="Decedent Spouse"/>
            </reference>
            <name value="Decedent Spouse"/>
            <description value="The Decedent Spouse resource represents the surviving spouse of the decedent. The VRDR Decedent Spouse profile builds upon the FHIR R4 Related Person resource."/>
            <exampleBoolean value="false"/>
            <groupingId value="DecedentDemographics"/>
        </resource>
        <resource>
            <extension url="https://trifolia-fhir.lantanagroup.com/StructureDefinition/extension-ig-resource-file-path">
                <valueString value="structuredefinition/VRDR-Decedent-Transportation-Role.xml"/>
            </extension>
            <reference>
                <reference value="StructureDefinition/VRDR-Decedent-Transportation-Role"/>
                <display value="Decedent Transportation Role"/>
            </reference>
            <name value="Decedent Transportation Role"/>
            <description value="The Decedent Transportation Role resource is used to specify the role of the decedent (e.g. driver, passenger, pedestrian, other) in a transportation-related injury. The VRDR Decedent Transportation Role profile builds upon the FHIR R4 Observation resource."/>
            <exampleBoolean value="false"/>
            <groupingId value="DeathInvestigation"/>
        </resource>
        <resource>
            <extension url="https://trifolia-fhir.lantanagroup.com/StructureDefinition/extension-ig-resource-file-path">
                <valueString value="structuredefinition/VRDR-Funeral-Home.xml"/>
            </extension>
            <reference>
                <reference value="StructureDefinition/VRDR-Funeral-Home"/>
                <display value="Funeral Home"/>
            </reference>
            <name value="Funeral Home"/>
            <description value="The Funeral Home resource represents the business entity conducting ceremony connected with the final disposition of the decedent's remains, such as a burial or cremation, with the attendant observances. The VRDR Funeral Home profile builds upon the FHIR R4 Organization resource."/>
            <exampleBoolean value="false"/>
            <groupingId value="DecedentDisposition"/>
        </resource>
        <resource>
            <extension url="https://trifolia-fhir.lantanagroup.com/StructureDefinition/extension-ig-resource-file-path">
                <valueString value="structuredefinition/VRDR-Interested-Party.xml"/>
            </extension>
            <reference>
                <reference value="StructureDefinition/VRDR-Interested-Party"/>
                <display value="Interested Party"/>
            </reference>
            <name value="Interested Party"/>
            <description value="The Interested Party resource represents a business entity that assigns one or more identifiers to a death certificate document. Assigning authorities for death certificate identifiers include coroners and medical examiners, local and state public health agencies, and the national center for health statistics. The VRDR Interested Party profile builds upon the FHIR R4 Organization resource."/>
            <exampleBoolean value="false"/>
            <groupingId value="DeathCertification"/>
        </resource>
        <resource>
            <extension url="https://trifolia-fhir.lantanagroup.com/StructureDefinition/extension-ig-resource-file-path">
                <valueString value="structuredefinition/VRDR-Manner-of-Death.xml"/>
            </extension>
            <reference>
                <reference value="StructureDefinition/VRDR-Manner-of-Death"/>
                <display value="Manner of Death"/>
            </reference>
            <name value="Manner of Death"/>
            <description value="The Manner of Death resource represents the conclusion arrived at upon completion of death investigation regarding the manner of death (eg., natural, homicide, suicide, accident, ...). The VRDR Manner of Death profile builds upon the FHIR R4 Observation resource."/>
            <exampleBoolean value="false"/>
            <groupingId value="DeathCertification"/>
        </resource>
        <resource>
            <extension url="https://trifolia-fhir.lantanagroup.com/StructureDefinition/extension-ig-resource-file-path">
                <valueString value="structuredefinition/VRDR-Mortician.xml"/>
            </extension>
            <reference>
                <reference value="StructureDefinition/VRDR-Mortician"/>
                <display value="Mortician"/>
            </reference>
            <name value="Mortician"/>
            <description value="The Mortician resource represents the professional practitioner preceding over the funeral services involved in the disposition of the decedent's remains. The VRDR Mortician profile builds upon the FHIR R4 Practitioner resource."/>
            <exampleBoolean value="false"/>
            <groupingId value="DecedentDisposition"/>
        </resource>
        <resource>
            <extension url="https://trifolia-fhir.lantanagroup.com/StructureDefinition/extension-ig-resource-file-path">
                <valueString value="structuredefinition/VRDR-Tobacco-Use-Contributed-To-Death.xml"/>
            </extension>
            <reference>
                <reference value="StructureDefinition/VRDR-Tobacco-Use-Contributed-To-Death"/>
                <display value="Tobacco Use Contributed To Death"/>
            </reference>
            <name value="Tobacco Use Contributed To Death"/>
            <description value="The Tobacco Use Contributed To Death resource represents the conclusion arrived at during death investigation regarding the extent to which tobacco use contributed to the death of the decedent. The VRDR Tobacco Use Contributed To Death profile builds upon the FHIR R4 Observation resource."/>
            <exampleBoolean value="false"/>
            <groupingId value="DeathInvestigation"/>
        </resource>
        <resource>
            <extension url="https://trifolia-fhir.lantanagroup.com/StructureDefinition/extension-ig-resource-file-path">
                <valueString value="structuredefinition/VRDR-Injury-Location.xml"/>
            </extension>
            <reference>
                <reference value="StructureDefinition/VRDR-Injury-Location"/>
                <display value="Injury Location"/>
            </reference>
            <name value="Injury Location"/>
            <description value="The Injury Location resource represents the general place (such as restaurant, vacant lot, or home) where a decedent's death-related injury occurred. The VRDR Injury Location profile builds upon the FHIR R4 Location resource."/>
            <exampleBoolean value="false"/>
            <groupingId value="DeathInvestigation"/>
        </resource>
        <resource>
            <extension url="https://trifolia-fhir.lantanagroup.com/StructureDefinition/extension-ig-resource-file-path">
                <valueString value="structuredefinition/VRDR-Autopsy-Performed-Indicator.xml"/>
            </extension>
            <reference>
                <reference value="StructureDefinition/VRDR-Autopsy-Performed-Indicator"/>
                <display value="Autopsy Performed Indicator"/>
            </reference>
            <name value="Autopsy Performed Indicator"/>
            <description value="The Autopsy Performed Indicator profile provides an indication as to whether an autopsy was performed and if so, indicates whether the results of the autopsy are available. The Autopsy Performed Indicator profile builds upon the FHIR Observation resource."/>
            <exampleBoolean value="false"/>
            <groupingId value="DeathInvestigation"/>
        </resource>
        <resource>
            <extension url="https://trifolia-fhir.lantanagroup.com/StructureDefinition/extension-ig-resource-file-path">
                <valueString value="structuredefinition/VRDR-Cause-Of-Death-Condition.xml"/>
            </extension>
            <reference>
                <reference value="StructureDefinition/VRDR-Cause-Of-Death-Condition"/>
                <display value="Cause Of Death Condition"/>
            </reference>
            <name value="Cause Of Death Condition"/>
            <description value="The Cause Of Death Condition resource represents a clinically relevant condition --disease, injury, or complication-- in the causal pathway of events that directly caused the death. The VRDR Cause of Death Condition profile builds upon the FHIR R4 Condition resource."/>
            <exampleBoolean value="false"/>
            <groupingId value="DeathCertification"/>
        </resource>
        <resource>
            <extension url="https://trifolia-fhir.lantanagroup.com/StructureDefinition/extension-ig-resource-file-path">
                <valueString value="structuredefinition/VRDR-Certifier.xml"/>
            </extension>
            <reference>
                <reference value="StructureDefinition/VRDR-Certifier"/>
                <display value="Certifier"/>
            </reference>
            <name value="Certifier"/>
            <description value="The Certifier resource represents the practitioner (coroner, medical examiner, or physician) who certifies death, the manner of death, and the causes of death. The VRDR Cerfifier profile builds upon the FHIR R4 Practitioner resource."/>
            <exampleBoolean value="false"/>
            <groupingId value="DeathCertification"/>
        </resource>
        <resource>
            <extension url="https://trifolia-fhir.lantanagroup.com/StructureDefinition/extension-ig-resource-file-path">
                <valueString value="structuredefinition/VRDR-Condition-Contributing-To-Death.xml"/>
            </extension>
            <reference>
                <reference value="StructureDefinition/VRDR-Condition-Contributing-To-Death"/>
                <display value="Condition Contributing To Death"/>
            </reference>
            <name value="Condition Contributing To Death"/>
            <description value="The Condition Contributing To Death resource represents a significant condition contributing to death but not resulting in the underlying cause. The VRDR Condition Contributing To Death profile builds upon the FHIR R4 Condition resource."/>
            <exampleBoolean value="false"/>
            <groupingId value="DeathCertification"/>
        </resource>
        <resource>
            <extension url="https://trifolia-fhir.lantanagroup.com/StructureDefinition/extension-ig-resource-file-path">
                <valueString value="structuredefinition/VRDR-Death-Certificate.xml"/>
            </extension>
            <reference>
                <reference value="StructureDefinition/VRDR-Death-Certificate"/>
                <display value="Death Certificate"/>
            </reference>
            <name value="Death Certificate"/>
            <description value="The Death Certificate resource represents the body of the death certificate document that lays in order to the bundle of resources comprising the death certificate document. The VRDR Death Certificate profile builds upon the FHIR R4 Composition resource."/>
            <exampleBoolean value="false"/>
            <groupingId value="DeathCertification"/>
        </resource>
        <resource>
            <extension url="https://trifolia-fhir.lantanagroup.com/StructureDefinition/extension-ig-resource-file-path">
                <valueString value="structuredefinition/VRDR-Death-Certificate-Document.xml"/>
            </extension>
            <reference>
                <reference value="StructureDefinition/VRDR-Death-Certificate-Document"/>
                <display value="Death Certificate Document"/>
            </reference>
            <name value="Death Certificate Document"/>
            <description value="The Death Certificate Document resource is the bundle of resources that comprise the death certificate. The VRDR Death Certificate Document profile builds upon the FHIR R4 Bundle resource."/>
            <exampleBoolean value="false"/>
            <groupingId value="DeathCertification"/>
        </resource>
        <resource>
            <extension url="https://trifolia-fhir.lantanagroup.com/StructureDefinition/extension-ig-resource-file-path">
                <valueString value="structuredefinition/VRDR-Death-Certification.xml"/>
            </extension>
            <reference>
                <reference value="StructureDefinition/VRDR-Death-Certification"/>
                <display value="Death Certification"/>
            </reference>
            <name value="Death Certification"/>
            <description value="The Death Certification resource represents the act of certifying death. The VRDR Death Certification profile builds upon the FHIR R4 Procedure resource."/>
            <exampleBoolean value="false"/>
            <groupingId value="DeathCertification"/>
        </resource>
        <resource>
            <extension url="https://trifolia-fhir.lantanagroup.com/StructureDefinition/extension-ig-resource-file-path">
                <valueString value="structuredefinition/VRDR-Death-Location.xml"/>
            </extension>
            <reference>
                <reference value="StructureDefinition/VRDR-Death-Location"/>
                <display value="Death Location"/>
            </reference>
            <name value="Death Location"/>
            <description value="The Death Location resource represents the decedent's place of death. The VRDR Death Location profile builds upon the FHIR R4 Location resource."/>
            <exampleBoolean value="false"/>
            <groupingId value="DeathInvestigation"/>
        </resource>
        <resource>
            <extension url="https://trifolia-fhir.lantanagroup.com/StructureDefinition/extension-ig-resource-file-path">
                <valueString value="structuredefinition/VRDR-Death-Pronouncement-Performer.xml"/>
            </extension>
            <reference>
                <reference value="StructureDefinition/VRDR-Death-Pronouncement-Performer"/>
                <display value="Death Pronouncement Performer"/>
            </reference>
            <name value="Death Pronouncement Performer"/>
            <description value="The Death Pronouncement Performer resource represents the health practitioner that declared the decedent dead. The VRDR Death Pronouncement Performer profile builds upon the FHIR R4 Practitioner resouce."/>
            <exampleBoolean value="false"/>
            <groupingId value="DeathInvestigation"/>
        </resource>
        <resource>
            <extension url="https://trifolia-fhir.lantanagroup.com/StructureDefinition/extension-ig-resource-file-path">
                <valueString value="structuredefinition/Within-City-Limits-Indicator.xml"/>
            </extension>
            <reference>
                <reference value="StructureDefinition/Within-City-Limits-Indicator"/>
                <display value="Within City Limits Indicator"/>
            </reference>
            <name value="Within City Limits Indicator"/>
            <description value="The Within City Limits Indicator resource is an extension to the FHIR Address Datatype. It is used to indicate if the decedent's residential address is a location within the limits of the address city."/>
            <exampleBoolean value="false"/>
            <groupingId value="Extensions"/>
        </resource>
        <resource>
            <extension url="https://trifolia-fhir.lantanagroup.com/StructureDefinition/extension-ig-resource-file-path">
                <valueString value="structuredefinition/VRDR-InjuryIncident.xml"/>
            </extension>
            <reference>
                <reference value="StructureDefinition/VRDR-InjuryIncident"/>
                <display value="Injury Incident"/>
            </reference>
            <name value="Injury Incident"/>
            <description value="The Injury Incident resource represents observations (time, location, and work or transportation-related), discovered regarding an injury event during a death investigation. The VRDR Injury Incident profile builds upon the FHIR R4 Observation resource."/>
            <exampleBoolean value="false"/>
            <groupingId value="DeathInvestigation"/>
        </resource>
        <resource>
            <extension url="https://trifolia-fhir.lantanagroup.com/StructureDefinition/extension-ig-resource-file-path">
                <valueString value="structuredefinition/VRDR-BirthRecordIdentifier.xml"/>
            </extension>
            <reference>
                <reference value="StructureDefinition/VRDR-BirthRecordIdentifier"/>
                <display value="Birth Record Identifier"/>
            </reference>
            <name value="Birth Record Identifier"/>
            <description value="The Birth Record Identifier resource is a reference to a birth record used as a linkage. The VRDR Birth Record Identifier profile builds upon the FHIR R4 Observation resource."/>
            <exampleBoolean value="false"/>
            <groupingId value="DecedentDemographics"/>
        </resource>
        <resource>
            <extension url="https://trifolia-fhir.lantanagroup.com/StructureDefinition/extension-ig-resource-file-path">
                <valueString value="structuredefinition/VRDR-Cause-of-Death-Pathway.xml"/>
            </extension>
            <reference>
                <reference value="StructureDefinition/VRDR-Cause-of-Death-Pathway"/>
                <display value="Cause of Death Pathway"/>
            </reference>
            <name value="Cause of Death Pathway"/>
            <description value="The Cause of Death Pathway resource documents the ordered chain conditions in the causal pathway chain of events with a causal relationship to the decedent's death. The VRDR Cause of Death Pathway profile builds upon the FHIR R4 List resource."/>
            <exampleBoolean value="false"/>
            <groupingId value="DeathCertification"/>
        </resource>
        <resource>
            <extension url="https://trifolia-fhir.lantanagroup.com/StructureDefinition/extension-ig-resource-file-path">
                <valueString value="structuredefinition/VRDR-Death-Certificate-Reference.xml"/>
            </extension>
            <reference>
                <reference value="StructureDefinition/VRDR-Death-Certificate-Reference"/>
                <display value="Death Certificate Reference"/>
            </reference>
            <name value="Death Certificate Reference"/>
            <description value="The Death Certificate Reference resource enables interested parties to assign local identifiers to the death certificate document. The Death Certificate Reference profile builds upon the FHIR Document Reference resource."/>
            <exampleBoolean value="false"/>
            <groupingId value="DeathCertification"/>
        </resource>
        <resource>
            <extension url="https://trifolia-fhir.lantanagroup.com/StructureDefinition/extension-ig-resource-file-path">
                <valueString value="structuredefinition/VRDR-Decedent-Disposition-Method.xml"/>
            </extension>
            <reference>
                <reference value="StructureDefinition/VRDR-Decedent-Disposition-Method"/>
                <display value="Decedent Disposition Method"/>
            </reference>
            <name value="Decedent Disposition Method"/>
            <description value="The Decedent Disposition Method resource specifies the means by which the decedent's remains were disposed of.  The VRDR Decedent Disposition Method profile builds upon the FHIR R4 Observation resource."/>
            <exampleBoolean value="false"/>
            <groupingId value="DecedentDisposition"/>
        </resource>
        <resource>
            <extension url="https://trifolia-fhir.lantanagroup.com/StructureDefinition/extension-ig-resource-file-path">
                <valueString value="media/Scope.xml"/>
            </extension>
            <reference>
                <reference value="Media/Scope"/>
                <display value="Scope"/>
            </reference>
            <name value="VRDR FHIR Scope"/>
            <description value="A graphical depiction of the scope of VRDR FHIR IG."/>
            <exampleBoolean value="false"/>
            <groupingId value="Images"/>
        </resource>
        <resource>
            <extension url="https://trifolia-fhir.lantanagroup.com/StructureDefinition/extension-ig-resource-file-path">
                <valueString value="media/Sequences.xml"/>
            </extension>
            <reference>
                <reference value="Media/Sequences"/>
                <display value="Sequences"/>
            </reference>
            <name value="InformationExchanges"/>
            <description value="A diagram of the supported and unsupported sequence of interactions defining the scope of the IG."/>
            <exampleBoolean value="false"/>
            <groupingId value="Images"/>
        </resource>
        <resource>
            <extension url="https://trifolia-fhir.lantanagroup.com/StructureDefinition/extension-ig-resource-file-path">
                <valueString value="media/ProfileStructuralDefinitions.xml"/>
            </extension>
            <reference>
                <reference value="Media/ProfileStructuralDefinitions"/>
                <display value="ProfileStructuralDefinitions"/>
            </reference>
            <name value="Profile Structural Definitions"/>
            <description value="A graphic representation using UML of the complete set of VRDR resource profiles."/>
            <exampleBoolean value="false"/>
            <groupingId value="Images"/>
        </resource>
        <resource>
            <extension url="https://trifolia-fhir.lantanagroup.com/StructureDefinition/extension-ig-resource-file-path">
                <valueString value="media/image002.xml"/>
            </extension>
            <reference>
                <reference value="Media/image002"/>
                <display value="image002"/>
            </reference>
            <name value="Death Reporting Data Flow"/>
            <description value="A graphical depiction of the flow of death event information from event detection, investigation, and certification."/>
            <exampleBoolean value="false"/>
            <groupingId value="Images"/>
        </resource>
        <resource>
            <extension url="https://trifolia-fhir.lantanagroup.com/StructureDefinition/extension-ig-resource-file-path">
                <valueString value="media/ProfileInventory.xml"/>
            </extension>
            <reference>
                <reference value="Media/ProfileInventory"/>
                <display value="ProfileInventory"/>
            </reference>
            <name value="Profile Inventory"/>
            <description value="A tabular presentation of the collection of profiles grouped by workflow phase and indicating the base resource for each profile."/>
            <exampleBoolean value="false"/>
            <groupingId value="Images"/>
        </resource>
        <resource>
            <extension url="https://trifolia-fhir.lantanagroup.com/StructureDefinition/extension-ig-resource-file-path">
                <valueString value="media/TerminologyBindings.xml"/>
            </extension>
            <reference>
                <reference value="Media/TerminologyBindings"/>
                <display value="TerminologyBindings"/>
            </reference>
            <name value="Terminology Bindings"/>
            <description value="A table of the coded elements and their bindings to code systems, code values, and value sets."/>
            <exampleBoolean value="false"/>
            <groupingId value="Images"/>
        </resource>
        <resource>
            <extension url="https://trifolia-fhir.lantanagroup.com/StructureDefinition/extension-ig-resource-file-path">
                <valueString value="media/DecedentsubdomaintoDCF.xml"/>
            </extension>
            <reference>
                <reference value="Media/DecedentsubdomaintoDCF"/>
                <display value="DecedentsubdomaintoDCF"/>
            </reference>
            <name value="Decedent Subdomain to DCF"/>
            <description value="A tabular representation of the mapping of death data collection form elements to resource profile elements. "/>
            <exampleBoolean value="false"/>
            <groupingId value="Images"/>
        </resource>
        <resource>
            <extension url="https://trifolia-fhir.lantanagroup.com/StructureDefinition/extension-ig-resource-file-path">
                <valueString value="media/DeathInvestigationSubdomaintoDCF.xml"/>
            </extension>
            <reference>
                <reference value="Media/DeathInvestigationSubdomaintoDCF"/>
                <display value="DeathInvestigationSubdomaintoDCF"/>
            </reference>
            <name value="Death Investigation Subdomain to DCF"/>
            <description value="A tabular representation of the mapping of death investigation items from the death event data collection form to resource profile elements."/>
            <exampleBoolean value="false"/>
            <groupingId value="Images"/>
        </resource>
        <resource>
            <extension url="https://trifolia-fhir.lantanagroup.com/StructureDefinition/extension-ig-resource-file-path">
                <valueString value="media/DeathCertificationsubdomaintoDCF.xml"/>
            </extension>
            <reference>
                <reference value="Media/DeathCertificationsubdomaintoDCF"/>
                <display value="DeathCertificationsubdomaintoDCF"/>
            </reference>
            <name value="Death Certification Subdomain to DCF"/>
            <description value="A tabular representation of the mapping of death certification data items on the death certification data collection form to resource profile elements."/>
            <exampleBoolean value="false"/>
            <groupingId value="Images"/>
        </resource>
        <resource>
            <extension url="https://trifolia-fhir.lantanagroup.com/StructureDefinition/extension-ig-resource-file-path">
                <valueString value="media/DecedentDispositionsubdomaintoDCF.xml"/>
            </extension>
            <reference>
                <reference value="Media/DecedentDispositionsubdomaintoDCF"/>
                <display value="DecedentDispositionsubdomaintoDCF"/>
            </reference>
            <name value="Decedent Disposition Subdomain to DCF"/>
            <description value="A tabular representation of the mapping of decedent disposition data items from the death certificate data collection form to resource profile elements."/>
            <exampleBoolean value="false"/>
            <groupingId value="Images"/>
        </resource>
        <resource>
            <extension url="https://trifolia-fhir.lantanagroup.com/StructureDefinition/extension-ig-resource-file-path">
                <valueString value="media/ADecedent.xml"/>
            </extension>
            <reference>
                <reference value="Media/ADecedent"/>
                <display value="ADecedent"/>
            </reference>
            <name value="Decedent Demographic UML"/>
            <description value="A graphical representation, in UML, depicting profile resources related to decedent demographic data and their relationships to each other."/>
            <exampleBoolean value="false"/>
            <groupingId value="Images"/>
        </resource>
        <resource>
            <extension url="https://trifolia-fhir.lantanagroup.com/StructureDefinition/extension-ig-resource-file-path">
                <valueString value="media/BDeathInvestigation.xml"/>
            </extension>
            <reference>
                <reference value="Media/BDeathInvestigation"/>
                <display value="BDeathInvestigation"/>
            </reference>
            <name value="Death Investigation UML class diagram"/>
            <description value="A graphical representation, in UML, depicting the death investigation related resource profiles and their relationships to each other."/>
            <exampleBoolean value="false"/>
            <groupingId value="Images"/>
        </resource>
        <resource>
            <extension url="https://trifolia-fhir.lantanagroup.com/StructureDefinition/extension-ig-resource-file-path">
                <valueString value="media/CDeathCertification.xml"/>
            </extension>
            <reference>
                <reference value="Media/CDeathCertification"/>
                <display value="CDeathCertification"/>
            </reference>
            <name value="Death Certification UML class diagram"/>
            <description value="A graphical representation, using UML, depicting the resource profiles pertaining to death certification."/>
            <exampleBoolean value="false"/>
            <groupingId value="Images"/>
        </resource>
        <resource>
            <extension url="https://trifolia-fhir.lantanagroup.com/StructureDefinition/extension-ig-resource-file-path">
                <valueString value="media/DDecedentDisposition.xml"/>
            </extension>
            <reference>
                <reference value="Media/DDecedentDisposition"/>
                <display value="DDecedentDisposition"/>
            </reference>
            <name value="Decedent Disposition UML class diagram"/>
            <description value="A graphical representation, in UML, depicting the resource profiles pertaining to the disposition of the decedent's remains."/>
            <exampleBoolean value="false"/>
            <groupingId value="Images"/>
        </resource>
        <resource>
            <extension url="https://trifolia-fhir.lantanagroup.com/StructureDefinition/extension-ig-resource-file-path">
                <valueString value="structuredefinition/VRDR-Death-Date.xml"/>
            </extension>
            <reference>
                <reference value="StructureDefinition/VRDR-Death-Date"/>
                <display value="Death Date"/>
            </reference>
            <name value="Death Date"/>
            <description value="The Death Date resource is used to convey the actual or presumed date of death for the decedent. If the date of death unable to be determined then the date the decedent's remains were discovered serves as a surrogate for the death date. The VRDR Death Date resource profile builds upon the FHIR R4 Observation resource. The date the decedent was pronounced dead is included as a component of the death date observation."/>
            <exampleBoolean value="false"/>
            <groupingId value="DeathInvestigation"/>
        </resource>
        <resource>
            <extension url="https://trifolia-fhir.lantanagroup.com/StructureDefinition/extension-ig-resource-file-path">
                <valueString value="structuredefinition/VRDR-Decedent-Usual-Work.xml"/>
            </extension>
            <reference>
                <reference value="StructureDefinition/VRDR-Decedent-Usual-Work"/>
                <display value="VRDR_DecedentUsualWork"/>
            </reference>
            <name value="Decedent's Usual Work"/>
            <description value="The Decedent Usual Work resource is used to convey the usual work industry and occupation of the decedent. The base profile is lifted directly out of the Occupational Data for Health (ODH), Release 1.0 FHIR Implementation Guide (http://hl7.org/fhir/us/odh/)."/>
            <exampleBoolean value="false"/>
            <groupingId value="DecedentDemographics"/>
        </resource>
        <resource>
            <extension url="https://trifolia-fhir.lantanagroup.com/StructureDefinition/extension-ig-resource-file-path">
                <valueString value="structuredefinition/VRDR-Decedent-Military-Service.xml"/>
            </extension>
            <reference>
                <reference value="StructureDefinition/VRDR-Decedent-Military-Service"/>
                <display value="Decedent Military Service"/>
            </reference>
            <name value="Decedent Military Service"/>
            <description value="The Decedent Military Service resource is used to convey whether the decedent was ever in the US armed forces. The VRDR Decedent Military Service profile builds upon the FHIR R4 Observation resource."/>
            <exampleBoolean value="false"/>
            <groupingId value="DecedentDemographics"/>
        </resource>
        <resource>
            <extension url="https://trifolia-fhir.lantanagroup.com/StructureDefinition/extension-ig-resource-file-path">
                <valueString value="structuredefinition/VRDR-Decedent-Father.xml"/>
            </extension>
            <reference>
                <reference value="StructureDefinition/VRDR-Decedent-Father"/>
                <display value="Decedent Father"/>
            </reference>
            <name value="Decedent Father"/>
            <description value="The Decedent's Father resource represents the paternal parent of the decedent. The VRDR Decedent Father profile builds upon the FHIR R4 Related Person resource."/>
            <exampleBoolean value="false"/>
            <groupingId value="DecedentDemographics"/>
        </resource>
        <resource>
            <extension url="https://trifolia-fhir.lantanagroup.com/StructureDefinition/extension-ig-resource-file-path">
                <valueString value="structuredefinition/VRDR-Funeral-Service-Licensee.xml"/>
            </extension>
            <reference>
                <reference value="StructureDefinition/VRDR-Funeral-Service-Licensee"/>
                <display value="FuneralServiceLicensee"/>
            </reference>
            <name value="Funeral Service Licensee"/>
            <description value="The Funeral Service Licensee resource represents the professional practitioner affiliated with the funeral home that has met the requirements to be a funeral director and/or an embalmer. The VRDR Funeral Service Licensee profile builds upon the FHIR R4 PractitionerRole resource."/>
            <exampleBoolean value="false"/>
            <groupingId value="DecedentDisposition"/>
        </resource>
        <resource>
            <extension url="https://trifolia-fhir.lantanagroup.com/StructureDefinition/extension-ig-resource-file-path">
                <valueString value="structuredefinition/VRDR-Decedent.xml"/>
            </extension>
            <reference>
                <reference value="StructureDefinition/VRDR-Decedent"/>
                <display value="VRDR Decedent"/>
            </reference>
            <name value="Decedent"/>
            <description value="The decedent resource represents the deceased person that is the subject of the vital record death report. The VRDR Decedent profile builds upon the US-Core Patient profile."/>
            <exampleBoolean value="false"/>
            <groupingId value="DecedentDemographics"/>
        </resource>
        <resource>
            <extension url="https://trifolia-fhir.lantanagroup.com/StructureDefinition/extension-ig-resource-file-path">
                <valueString value="structuredefinition/Observation-Location.xml"/>
            </extension>
            <reference>
                <reference value="StructureDefinition/Observation-Location"/>
                <display value="Observation Location"/>
            </reference>
            <name value="Observation Location"/>
            <description value="Observation Location is an extension of the FHIR Observation resource. It is the location of the observed phenomenon or entity that is the subject of the observation. Use to enable the specification of locations such as the location of injury, the location of death, and the location of disposition."/>
            <exampleBoolean value="false"/>
            <groupingId value="Extensions"/>
        </resource>
        <resource>
            <extension url="https://trifolia-fhir.lantanagroup.com/StructureDefinition/extension-ig-resource-file-path">
                <valueString value="observation/0db13e0d-fea6-4ef1-8285-62d761f61d88.xml"/>
            </extension>
            <reference>
                <reference value="Observation/0db13e0d-fea6-4ef1-8285-62d761f61d88"/>
                <display value="AutopsyPerformedIndicatorInstanceExample"/>
            </reference>
            <name value="Autopsy Performed Indicator Instance Example"/>
            <description value="Instance example of the Autopsy Performed Indicator resource profile. This example indicates that an autopsy was performed and that the results of the autopsy are available."/>
            <exampleBoolean value="false"/>
            <exampleCanonical value="http://hl7.org/fhir/us/vrdr/StructureDefinition/VRDR-Autopsy-Performed-Indicator"/>
            <groupingId value="VRDR-Instance-Examples"/>
        </resource>
        <resource>
            <extension url="https://trifolia-fhir.lantanagroup.com/StructureDefinition/extension-ig-resource-file-path">
                <valueString value="patient/51b806c8-566f-463e-8783-9fbf6be8161d.xml"/>
            </extension>
            <reference>
                <reference value="Patient/51b806c8-566f-463e-8783-9fbf6be8161d"/>
                <display value="VRDRDecedentInstanceExample"/>
            </reference>
            <name value="Decedent Instance Example"/>
            <description value="An instance example of the VRDR Decedent resource profile. Mr. Example Last, a White, Native Hawaiian, Hispanic male born 1940-02-19 and residing in Middlesex, MA."/>
            <exampleBoolean value="false"/>
            <exampleCanonical value="http://hl7.org/fhir/us/vrdr/StructureDefinition/VRDR-Decedent"/>
            <groupingId value="VRDR-Instance-Examples"/>
        </resource>
        <resource>
            <extension url="https://trifolia-fhir.lantanagroup.com/StructureDefinition/extension-ig-resource-file-path">
                <valueString value="observation/6606dd3a-49ba-47a9-a6e7-e7e4ebeddac7.xml"/>
            </extension>
            <reference>
                <reference value="Observation/6606dd3a-49ba-47a9-a6e7-e7e4ebeddac7"/>
                <display value="Birth-Record-Identifier-Example"/>
            </reference>
            <name value="Birth Record Identifier Example"/>
            <description value="An instance example of the Birth Record Identifier resource profile.  In this example Birth Record identifier 4242123 denotes Massachusetts and 1940 as the birthplace and birth year of the decedent."/>
            <exampleBoolean value="false"/>
            <exampleCanonical value="http://hl7.org/fhir/us/vrdr/StructureDefinition/VRDR-BirthRecordIdentifier"/>
            <groupingId value="VRDR-Instance-Examples"/>
        </resource>
        <resource>
            <extension url="https://trifolia-fhir.lantanagroup.com/StructureDefinition/extension-ig-resource-file-path">
                <valueString value="practitioner/cb1219bc-785f-431c-9f56-b8fbbe78bc4d.xml"/>
            </extension>
            <reference>
                <reference value="Practitioner/cb1219bc-785f-431c-9f56-b8fbbe78bc4d"/>
                <display value="CertifierInstanceExample"/>
            </reference>
            <name value="Certifier Instance Example"/>
            <description value="An instance example of a Certifier resource profile. This example is a certifying physician."/>
            <exampleBoolean value="false"/>
            <exampleCanonical value="http://hl7.org/fhir/us/vrdr/StructureDefinition/VRDR-Certifier"/>
            <groupingId value="VRDR-Instance-Examples"/>
        </resource>
        <resource>
            <extension url="https://trifolia-fhir.lantanagroup.com/StructureDefinition/extension-ig-resource-file-path">
                <valueString value="procedure/219ef5e3-ed0c-4dab-88eb-b114daaebd73.xml"/>
            </extension>
            <reference>
                <reference value="Procedure/219ef5e3-ed0c-4dab-88eb-b114daaebd73"/>
                <display value="DeathCertificationInstanceExample"/>
            </reference>
            <name value="Death Certification Instance Example"/>
            <description value="An instance example of a Death Certification resource profile. This example Death Certification procedure performed by a physician on 2019-01-29."/>
            <exampleBoolean value="false"/>
            <exampleCanonical value="http://hl7.org/fhir/us/vrdr/StructureDefinition/VRDR-Death-Certification"/>
            <groupingId value="VRDR-Instance-Examples"/>
        </resource>
        <resource>
            <extension url="https://trifolia-fhir.lantanagroup.com/StructureDefinition/extension-ig-resource-file-path">
                <valueString value="organization/1a110397-936f-4be4-ab10-2caed226569d.xml"/>
            </extension>
            <reference>
                <reference value="Organization/1a110397-936f-4be4-ab10-2caed226569d"/>
                <display value="InterestedPartyInstanceExample"/>
            </reference>
            <name value="Interested Party Instance Example"/>
            <description value="An instance example of the Interested Party resource profile. In the example, Example Hospital from MA is an active Healthcare Provider interested party."/>
            <exampleBoolean value="false"/>
            <exampleCanonical value="http://hl7.org/fhir/us/vrdr/StructureDefinition/VRDR-Interested-Party"/>
            <groupingId value="VRDR-Instance-Examples"/>
        </resource>
        <resource>
            <extension url="https://trifolia-fhir.lantanagroup.com/StructureDefinition/extension-ig-resource-file-path">
                <valueString value="condition/56b8ce2e-64f8-450b-8885-0699a53fc781.xml"/>
            </extension>
            <reference>
                <reference value="Condition/56b8ce2e-64f8-450b-8885-0699a53fc781"/>
                <display value="ConditionContributingToDeathExample"/>
            </reference>
            <name value="Condition Contributing To Death Example"/>
            <description value="An instance example of the VRDR-Condition-Contributing-To-Death resource profile. In this example, the condition is noted as text only. This is typical of a death record outbound from a jurisdictional EDRS to the NCHS."/>
            <exampleBoolean value="false"/>
            <exampleCanonical value="http://hl7.org/fhir/us/vrdr/StructureDefinition/VRDR-Condition-Contributing-To-Death"/>
            <groupingId value="VRDR-Instance-Examples"/>
        </resource>
        <resource>
            <extension url="https://trifolia-fhir.lantanagroup.com/StructureDefinition/extension-ig-resource-file-path">
                <valueString value="observation/df5a2807-e0b2-4971-9820-efdbbbfcef7b.xml"/>
            </extension>
            <reference>
                <reference value="Observation/df5a2807-e0b2-4971-9820-efdbbbfcef7b"/>
                <display value="DecedentAgeExample"/>
            </reference>
            <name value="Decedent Age Example"/>
            <description value="An instance example of the VRDR-Decedent-Age resource profile. In this example, the decedent is identified as 79 years in age."/>
            <exampleBoolean value="false"/>
            <exampleCanonical value="http://hl7.org/fhir/us/vrdr/StructureDefinition/VRDR-Decedent-Age"/>
            <groupingId value="VRDR-Instance-Examples"/>
        </resource>
        <resource>
            <extension url="https://trifolia-fhir.lantanagroup.com/StructureDefinition/extension-ig-resource-file-path">
                <valueString value="observation/b531cbf7-6290-424c-8155-0549c3fb3243.xml"/>
            </extension>
            <reference>
                <reference value="Observation/b531cbf7-6290-424c-8155-0549c3fb3243"/>
                <display value="DeathDateExample"/>
            </reference>
            <name value="Death Date Example"/>
            <description value="An instance example of the VRDR-Death-Date resource profile. In this example, the date and time of death is 2018-02-20T16:48:06-05:00. The Date and time pronounced dead is also  2018-02-20T16:48:06-05:00."/>
            <exampleBoolean value="false"/>
            <exampleCanonical value="http://hl7.org/fhir/us/vrdr/StructureDefinition/VRDR-Death-Date"/>
            <groupingId value="VRDR-Instance-Examples"/>
        </resource>
        <resource>
            <extension url="https://trifolia-fhir.lantanagroup.com/StructureDefinition/extension-ig-resource-file-path">
                <valueString value="location/4b863da8-1bb5-4b17-9be2-4ea39b5d3a2a.xml"/>
            </extension>
            <reference>
                <reference value="Location/4b863da8-1bb5-4b17-9be2-4ea39b5d3a2a"/>
                <display value="InjuryLocationExample"/>
            </reference>
            <name value="Injury Location"/>
            <description value="An instance example of the VRDR-Injury-Location resource profile."/>
            <exampleBoolean value="false"/>
            <exampleCanonical value="http://hl7.org/fhir/us/vrdr/StructureDefinition/VRDR-Injury-Location"/>
            <groupingId value="VRDR-Instance-Examples"/>
        </resource>
        <resource>
            <extension url="https://trifolia-fhir.lantanagroup.com/StructureDefinition/extension-ig-resource-file-path">
                <valueString value="observation/4d0ce010-16f1-44f4-bbf8-3a2030e9de99.xml"/>
            </extension>
            <reference>
                <reference value="Observation/4d0ce010-16f1-44f4-bbf8-3a2030e9de99"/>
                <display value="TobaccoUseContributedToDeathExample"/>
            </reference>
            <name value="Tobacco Use Contributed To Death"/>
            <description value="An instance example of the VRDR-Tobacco-Use-Contributed-To-Death resource profile."/>
            <exampleBoolean value="false"/>
            <exampleCanonical value="http://hl7.org/fhir/us/vrdr/StructureDefinition/VRDR-Tobacco-Use-Contributed-To-Death"/>
            <groupingId value="VRDR-Instance-Examples"/>
        </resource>
        <resource>
            <extension url="https://trifolia-fhir.lantanagroup.com/StructureDefinition/extension-ig-resource-file-path">
                <valueString value="observation/4aed1450-ab2d-4cb9-858f-227b127323a6.xml"/>
            </extension>
            <reference>
                <reference value="Observation/4aed1450-ab2d-4cb9-858f-227b127323a6"/>
                <display value="ExaminerContactedExample"/>
            </reference>
            <name value="Examiner Contacted Example"/>
            <description value="An instance example of the VRDR-Examiner-Contacted resource profile."/>
            <exampleBoolean value="false"/>
            <exampleCanonical value="http://hl7.org/fhir/us/vrdr/StructureDefinition/VRDR-Examiner-Contacted"/>
            <groupingId value="VRDR-Instance-Examples"/>
        </resource>
        <resource>
            <extension url="https://trifolia-fhir.lantanagroup.com/StructureDefinition/extension-ig-resource-file-path">
                <valueString value="observation/092e7b13-224d-46a6-ac31-0d98d4c84126.xml"/>
            </extension>
            <reference>
                <reference value="Observation/092e7b13-224d-46a6-ac31-0d98d4c84126"/>
                <display value="DecedentPregnancyExample"/>
            </reference>
            <name value="Decedent Pregnancy Example"/>
            <description value="An instance example of the VRDR-Decedent-Pregnancy resource profile."/>
            <exampleBoolean value="false"/>
            <exampleCanonical value="http://hl7.org/fhir/us/vrdr/StructureDefinition/VRDR-Decedent-Pregnancy"/>
            <groupingId value="VRDR-Instance-Examples"/>
        </resource>
        <resource>
            <extension url="https://trifolia-fhir.lantanagroup.com/StructureDefinition/extension-ig-resource-file-path">
                <valueString value="observation/d80681ff-9f1d-4915-87b5-eda54534096a.xml"/>
            </extension>
            <reference>
                <reference value="Observation/d80681ff-9f1d-4915-87b5-eda54534096a"/>
                <display value="DecedentDispositionMethodExample"/>
            </reference>
            <name value="Decedent Disposition Method Example"/>
            <description value="An instance example of the VRDR-Decedent-Disposition-Method resource profile."/>
            <exampleBoolean value="false"/>
            <exampleCanonical value="http://hl7.org/fhir/us/vrdr/StructureDefinition/VRDR-Decedent-Disposition-Method"/>
            <groupingId value="VRDR-Instance-Examples"/>
        </resource>
        <resource>
            <extension url="https://trifolia-fhir.lantanagroup.com/StructureDefinition/extension-ig-resource-file-path">
                <valueString value="practitioner/80db6f45-8a6d-4583-8a03-55a6663523c2.xml"/>
            </extension>
            <reference>
                <reference value="Practitioner/80db6f45-8a6d-4583-8a03-55a6663523c2"/>
                <display value="MorticianExample"/>
            </reference>
            <name value="Mortician Example"/>
            <description value="An instance example of the VRDR-Mortician resource profile."/>
            <exampleBoolean value="false"/>
            <exampleCanonical value="http://hl7.org/fhir/us/vrdr/StructureDefinition/VRDR-Mortician"/>
            <groupingId value="VRDR-Instance-Examples"/>
        </resource>
        <resource>
            <extension url="https://trifolia-fhir.lantanagroup.com/StructureDefinition/extension-ig-resource-file-path">
                <valueString value="observation/636dafac-0d92-4649-b838-004bcf714f5aj.xml"/>
            </extension>
            <reference>
                <reference value="Observation/636dafac-0d92-4649-b838-004bcf714f5aj"/>
                <display value="DecedentMilitaryServiceExample"/>
            </reference>
            <name value="Decedent Military Service Example"/>
            <description value="An instance example of the VRDR-Decedent-Military-Service"/>
            <exampleBoolean value="false"/>
            <exampleCanonical value="http://hl7.org/fhir/us/vrdr/StructureDefinition/VRDR-Decedent-Military-Service"/>
            <groupingId value="VRDR-Instance-Examples"/>
        </resource>
        <resource>
            <extension url="https://trifolia-fhir.lantanagroup.com/StructureDefinition/extension-ig-resource-file-path">
                <valueString value="observation/9676ae27-2a89-4295-913c-0d6847300a3a.xml"/>
            </extension>
            <reference>
                <reference value="Observation/9676ae27-2a89-4295-913c-0d6847300a3a"/>
                <display value="DecedentEducationLevelExample"/>
            </reference>
            <name value="Decedent Education Level Example"/>
            <description value="An instance example of the VRDR-Decedent-Education-Level resource profile."/>
            <exampleBoolean value="false"/>
            <exampleCanonical value="http://hl7.org/fhir/us/vrdr/StructureDefinition/VRDR-Decedent-Education-Level"/>
            <groupingId value="VRDR-Instance-Examples"/>
        </resource>
        <resource>
            <extension url="https://trifolia-fhir.lantanagroup.com/StructureDefinition/extension-ig-resource-file-path">
                <valueString value="relatedperson/89ababc6-8c2a-4e76-9f53-8677822f54a9.xml"/>
            </extension>
            <reference>
                <reference value="RelatedPerson/89ababc6-8c2a-4e76-9f53-8677822f54a9"/>
                <display value="DecedentMotherExample"/>
            </reference>
            <name value="Decedent Mother Example"/>
            <description value="An instance example of the VRDR-Decedent-Mother resource profile."/>
            <exampleBoolean value="false"/>
            <exampleCanonical value="http://hl7.org/fhir/us/vrdr/StructureDefinition/VRDR-Decedent-Mother"/>
            <groupingId value="VRDR-Instance-Examples"/>
        </resource>
        <resource>
            <extension url="https://trifolia-fhir.lantanagroup.com/StructureDefinition/extension-ig-resource-file-path">
                <valueString value="relatedperson/962fded4-b90a-44f7-950e-3832011ad65f.xml"/>
            </extension>
            <reference>
                <reference value="RelatedPerson/962fded4-b90a-44f7-950e-3832011ad65f"/>
                <display value="DecedentSpouseExample"/>
            </reference>
            <name value="Decedent Spouse Example"/>
            <description value="An instance example of the VRDR-Decedent-Spouse example."/>
            <exampleBoolean value="false"/>
            <exampleCanonical value="http://hl7.org/fhir/us/vrdr/StructureDefinition/VRDR-Decedent-Spouse"/>
            <groupingId value="VRDR-Instance-Examples"/>
        </resource>
        <resource>
            <extension url="https://trifolia-fhir.lantanagroup.com/StructureDefinition/extension-ig-resource-file-path">
                <valueString value="relatedperson/976c548f-9460-42f2-b41e-390b3bee91c8.xml"/>
            </extension>
            <reference>
                <reference value="RelatedPerson/976c548f-9460-42f2-b41e-390b3bee91c8"/>
                <display value="DecedentFatherExample"/>
            </reference>
            <name value="Decedent Father Example"/>
            <description value="An instance example of the VRDR-Decedent-Father resource profile."/>
            <exampleBoolean value="false"/>
            <exampleCanonical value="http://hl7.org/fhir/us/vrdr/StructureDefinition/VRDR-Decedent-Father"/>
            <groupingId value="VRDR-Instance-Examples"/>
        </resource>
        <resource>
            <extension url="https://trifolia-fhir.lantanagroup.com/StructureDefinition/extension-ig-resource-file-path">
                <valueString value="observation/d7c2e459-c7ca-415c-a38c-f78a0f0c5813.xml"/>
            </extension>
            <reference>
                <reference value="Observation/d7c2e459-c7ca-415c-a38c-f78a0f0c5813"/>
                <display value="MannerOfDeathExample"/>
            </reference>
            <name value="Manner of Death Example"/>
            <description value="An instance example of the VRDR-Manner-of-Death resource profile."/>
            <exampleBoolean value="false"/>
            <exampleCanonical value="http://hl7.org/fhir/us/vrdr/StructureDefinition/VRDR-Manner-of-Death"/>
            <groupingId value="VRDR-Instance-Examples"/>
        </resource>
        <resource>
            <extension url="https://trifolia-fhir.lantanagroup.com/StructureDefinition/extension-ig-resource-file-path">
                <valueString value="condition/f0cbc63d-ac4e-469b-8761-70b6ea8bf666.xml"/>
            </extension>
            <reference>
                <reference value="Condition/f0cbc63d-ac4e-469b-8761-70b6ea8bf666"/>
                <display value="CauseOfDeathConditionExample"/>
            </reference>
            <name value="Cause Of Death Condition Example"/>
            <description value="An instance example of the VRDR-Cause-Of-Death-Condition resource profile."/>
            <exampleBoolean value="false"/>
            <exampleCanonical value="http://hl7.org/fhir/us/vrdr/StructureDefinition/VRDR-Cause-Of-Death-Condition"/>
            <groupingId value="VRDR-Instance-Examples"/>
        </resource>
        <resource>
            <extension url="https://trifolia-fhir.lantanagroup.com/StructureDefinition/extension-ig-resource-file-path">
                <valueString value="list/60401545-f1e1-4a80-867f-02384ffed857.xml"/>
            </extension>
            <reference>
                <reference value="List/60401545-f1e1-4a80-867f-02384ffed857"/>
                <display value="CauseOfDeathPathwayExample"/>
            </reference>
            <name value="Cause of Death Pathway Example"/>
            <description value="An instance example of the VRDR-Cause-of-Death-Pathway resource profile."/>
            <exampleBoolean value="false"/>
            <exampleCanonical value="http://hl7.org/fhir/us/vrdr/StructureDefinition/VRDR-Cause-of-Death-Pathway"/>
            <groupingId value="VRDR-Instance-Examples"/>
        </resource>
        <resource>
            <extension url="https://trifolia-fhir.lantanagroup.com/StructureDefinition/extension-ig-resource-file-path">
                <valueString value="organization/6f47da13-0c25-483b-8729-7b96716b17fc.xml"/>
            </extension>
            <reference>
                <reference value="Organization/6f47da13-0c25-483b-8729-7b96716b17fc"/>
                <display value="FuneralHomeExample"/>
            </reference>
            <name value="Funeral Home Example"/>
            <description value="An instance example of the VRDR-Funeral-Home resource profile."/>
            <exampleBoolean value="false"/>
            <exampleCanonical value="http://hl7.org/fhir/us/vrdr/StructureDefinition/VRDR-Funeral-Home"/>
            <groupingId value="VRDR-Instance-Examples"/>
        </resource>
        <resource>
            <extension url="https://trifolia-fhir.lantanagroup.com/StructureDefinition/extension-ig-resource-file-path">
                <valueString value="practitionerrole/4b96759f-8395-4093-8417-e1ca3cd26f0a.xml"/>
            </extension>
            <reference>
                <reference value="PractitionerRole/4b96759f-8395-4093-8417-e1ca3cd26f0a"/>
                <display value="FuneralServiceLicenseeExample"/>
            </reference>
            <name value="Funeral Service Licensee Example"/>
            <description value="An instance example of the VRDR-Funeral-Service-Licensee resource profile."/>
            <exampleBoolean value="false"/>
            <exampleCanonical value="http://hl7.org/fhir/us/vrdr/StructureDefinition/VRDR-Funeral-Service-Licensee"/>
            <groupingId value="VRDR-Instance-Examples"/>
        </resource>
        <resource>
            <extension url="https://trifolia-fhir.lantanagroup.com/StructureDefinition/extension-ig-resource-file-path">
                <valueString value="composition/54fd9b4c-7633-4e34-bf6b-6fbe9d48fd30.xml"/>
            </extension>
            <reference>
                <reference value="Composition/54fd9b4c-7633-4e34-bf6b-6fbe9d48fd30"/>
                <display value="DeathCertificateExample"/>
            </reference>
            <name value="Death Certificate Example"/>
            <description value="An instance example of the VRDR-Death-Certificate resource profile."/>
            <exampleBoolean value="false"/>
            <exampleCanonical value="http://hl7.org/fhir/us/vrdr/StructureDefinition/VRDR-Death-Certificate"/>
            <groupingId value="VRDR-Instance-Examples"/>
        </resource>
        <resource>
            <extension url="https://trifolia-fhir.lantanagroup.com/StructureDefinition/extension-ig-resource-file-path">
                <valueString value="location/bbe38248-9a8d-414f-996e-58d5fc9eb800.xml"/>
            </extension>
            <reference>
                <reference value="Location/bbe38248-9a8d-414f-996e-58d5fc9eb800"/>
                <display value="DispositionLocationExample"/>
            </reference>
            <name value="Disposition Location Example"/>
            <description value="Instance example of the VRDR-Disposition-Location resource profile."/>
            <exampleBoolean value="false"/>
            <exampleCanonical value="http://hl7.org/fhir/us/vrdr/StructureDefinition/VRDR-Disposition-Location"/>
            <groupingId value="VRDR-Instance-Examples"/>
        </resource>
        <resource>
            <extension url="https://trifolia-fhir.lantanagroup.com/StructureDefinition/extension-ig-resource-file-path">
                <valueString value="observation/4424113f-69c4-40fe-b88f-d7b03304dfe4.xml"/>
            </extension>
            <reference>
                <reference value="Observation/4424113f-69c4-40fe-b88f-d7b03304dfe4"/>
                <display value="DecedentTransportationRoleExample"/>
            </reference>
            <name value="Decedent Transportation Role Example"/>
            <description value="An instance example of the VRDR-Decedent-Transportation-Role resource profile."/>
            <exampleBoolean value="false"/>
            <exampleCanonical value="http://hl7.org/fhir/us/vrdr/StructureDefinition/VRDR-Decedent-Transportation-Role"/>
            <groupingId value="VRDR-Instance-Examples"/>
        </resource>
        <resource>
            <extension url="https://trifolia-fhir.lantanagroup.com/StructureDefinition/extension-ig-resource-file-path">
                <valueString value="observation/37c086a1-05bd-479c-92b4-1234d38bfe5a.xml"/>
            </extension>
            <reference>
                <reference value="Observation/37c086a1-05bd-479c-92b4-1234d38bfe5a"/>
                <display value="InjuryIncidentExample"/>
            </reference>
            <name value="Injury Incident Example"/>
            <description value="An instance example of the VRDR-InjuryIncident resource profile."/>
            <exampleBoolean value="false"/>
            <exampleCanonical value="http://hl7.org/fhir/us/vrdr/StructureDefinition/VRDR-InjuryIncident"/>
            <groupingId value="VRDR-Instance-Examples"/>
        </resource>
        <resource>
            <extension url="https://trifolia-fhir.lantanagroup.com/StructureDefinition/extension-ig-resource-file-path">
                <valueString value="observation/48b230c3-c5b5-4844-83bf-ede59170676e.xml"/>
            </extension>
            <reference>
                <reference value="Observation/48b230c3-c5b5-4844-83bf-ede59170676e"/>
                <display value="DecedentUsualWorkExample"/>
            </reference>
            <name value="Decedent Usual Work Example"/>
            <description value="An instance example of the VRDR-Decedent-Usual-Work resource profile."/>
            <exampleBoolean value="false"/>
            <exampleCanonical value="http://hl7.org/fhir/us/vrdr/StructureDefinition/VRDR-Decedent-Usual-Work"/>
            <groupingId value="VRDR-Instance-Examples"/>
        </resource>
        <resource>
            <extension url="https://trifolia-fhir.lantanagroup.com/StructureDefinition/extension-ig-resource-file-path">
                <valueString value="practitioner/9102c234-53ca-4066-8452-42f3ba751c7d.xml"/>
            </extension>
            <reference>
                <reference value="Practitioner/9102c234-53ca-4066-8452-42f3ba751c7d"/>
                <display value="DeathPronouncementPerformerExample"/>
            </reference>
            <name value="Death Pronouncement Performer Example"/>
            <description value="An instance example of the VRDR-Death-Pronouncement-Performer resource profile"/>
            <exampleBoolean value="false"/>
            <exampleCanonical value="http://hl7.org/fhir/us/vrdr/StructureDefinition/VRDR-Death-Pronouncement-Performer"/>
            <groupingId value="VRDR-Instance-Examples"/>
        </resource>
        <resource>
            <extension url="https://trifolia-fhir.lantanagroup.com/StructureDefinition/extension-ig-resource-file-path">
                <valueString value="bundle/7a4613cc-b306-49b2-a428-9f8e67e67a85.xml"/>
            </extension>
            <reference>
                <reference value="Bundle/7a4613cc-b306-49b2-a428-9f8e67e67a85"/>
                <display value="VRDR-Death-Certificate-Document-Example"/>
            </reference>
            <name value="Death Certificate Document Example"/>
            <description value="An instance example of the VRDR-Death-Certificate-Document resource profile."/>
            <exampleBoolean value="false"/>
            <exampleCanonical value="http://hl7.org/fhir/us/vrdr/StructureDefinition/VRDR-Death-Certificate-Document"/>
            <groupingId value="VRDR-Instance-Examples"/>
        </resource>
        <resource>
            <extension url="https://trifolia-fhir.lantanagroup.com/StructureDefinition/extension-ig-resource-file-path">
                <valueString value="documentreference/bafe16b9-8b50-47e1-829a-a7dbafb45e05.xml"/>
            </extension>
            <reference>
                <reference value="DocumentReference/bafe16b9-8b50-47e1-829a-a7dbafb45e05"/>
                <display value="VRDR-Death-Certificate-Reference-Example"/>
            </reference>
            <name value="Death Certificate Reference Example"/>
            <description value="An instance example of the VRDR-Death-Certificate-Reference resource profile."/>
            <exampleBoolean value="false"/>
            <exampleCanonical value="http://hl7.org/fhir/us/vrdr/StructureDefinition/VRDR-Death-Certificate-Reference"/>
            <groupingId value="VRDR-Instance-Examples"/>
        </resource>
        <resource>
            <extension url="https://trifolia-fhir.lantanagroup.com/StructureDefinition/extension-ig-resource-file-path">
                <valueString value="structuredefinition/Location-Jurisdiction-Id.xml"/>
            </extension>
            <reference>
                <reference value="StructureDefinition/Location-Jurisdiction-Id"/>
                <display value="LocationJurisdictionId"/>
            </reference>
            <name value="LocationJurisdictionId"/>
            <description value="An extension intended for use in an FHIR Location resource to identify the national case reporting jurisdiction under which the location falls. The jurisdiction identifier can be express as a string or as a code value from the [PHVS_USVitalRecordsJurisdictions_NCHS](https://phinvads.cdc.gov/vads/ViewValueSet.action?id=282D4DD8-39EA-4C5B-B8A9-B2C3E5878A15#) value set."/>
            <exampleBoolean value="false"/>
            <groupingId value="Extensions"/>
        </resource>
        <resource>
            <extension url="https://trifolia-fhir.lantanagroup.com/StructureDefinition/extension-ig-resource-file-path">
                <valueString value="location/b7de6056-817f-4d73-9830-ce566accd044.xml"/>
            </extension>
            <reference>
                <reference value="Location/b7de6056-817f-4d73-9830-ce566accd044"/>
                <display value="VRDR-Death-Location-Example"/>
            </reference>
            <name value="Death Location Example"/>
            <description value="An instance example of the VRDR-Death-Location resource profile."/>
            <exampleBoolean value="false"/>
            <exampleCanonical value="http://hl7.org/fhir/us/vrdr/StructureDefinition/VRDR-Death-Location"/>
            <groupingId value="VRDR-Instance-Examples"/>
        </resource>
        <resource>
            <reference>
                <reference value="StructureDefinition/Extension-Partial-Date-Part-Absent-Reason"/>
                <display value="Extension - Partial Date Part Absent Reason"/>
            </reference>
            <name value="Extension - Date Part Absent Reason"/>
            <exampleBoolean value="false"/>
        </resource>
        <page>
            <extension url="https://trifolia-on-fhir.lantanagroup.com/StructureDefinition/extension-ig-page-auto-generate-toc">
                <valueBoolean value="true"/>
            </extension>
            <extension url="https://trifolia-fhir.lantanagroup.com/StructureDefinition/extension-ig-page-filename">
                <valueUri value="index.md"/>
            </extension>
            <extension url="https://trifolia-fhir.lantanagroup.com/StructureDefinition/extension-ig-page-reuse-description">
                <valueBoolean value="true"/>
            </extension>
            <nameUrl value="index.html"/>
            <title value="Home Page"/>
            <generation value="markdown"/>
            <page>
                <extension url="https://trifolia-fhir.lantanagroup.com/StructureDefinition/extension-ig-page-filename">
                    <valueUri value="project_team.md"/>
                </extension>
                <extension url="https://trifolia-on-fhir.lantanagroup.com/StructureDefinition/extension-ig-page-content">
                    <valueMarkdown value="**Project Facilitators:**&#xA;&#xA;- [Hetty Khan](https://www.linkedin.com/in/hetty-khan-a537a445/), Health Scientist (Informatics), CDC/National Center for Health Statistics&#xA;&#xA;- [Alaina Gregory](https://www.linkedin.com/in/alaina-elliott-aa9923/), IT Specialist, CDC/National Center for Health Statistics&#xA;&#xA;- Veronique Benie, Computer Scientist, CDC/National Center for Health Statistics&#xA;&#xA;- [Kate Brett](https://www.linkedin.com/in/kate-brett-40403030/), Director of Research Science, CDC/National Center for Health Statistics&#xA;&#xA;- [Cynthia Bush](https://www.linkedin.com/in/cynthia-cindy-bush-584bb0158/), Health Scientist (Informatics), CDC/National Center for Health Statistics&#xA;&#xA;- [Prachi Mehta](https://www.linkedin.com/in/prachim1/), Health Scientist (Informatics), CDC/National Center for Health Statistics&#xA;&#xA;**Business Requirements Analysts/Modeling facilitators:**&#xA;&#xA;- [AbdulMalik Shakir](https://www.linkedin.com/in/ashakir/), President and Chief Informatic Scientist, Hi3 Solutions&#xA;&#xA;- [Salimah Shakir](https://www.linkedin.com/in/salimah-shakir-16469413/), Business Systems Analyst, Hi3 Solutions&#xA;&#xA;**Specification Developers:**&#xA;* [AbdulMalik Shakir Sr.](https://www.linkedin.com/in/ashakir/), Hi3 Solutions&#xA;* [AbdulMalik Shakir Jr.](https://www.linkedin.com/in/abdul-shakir-a3078437/), Hi3 Solutions&#xA;* [Salimah Shakir](https://www.linkedin.com/in/salimah-shakir-16469413/), Hi3 Solutions&#xA;* [Adam Holmes](https://www.linkedin.com/in/adam-holmes-40577315a/), MITRE&#xA;&#xA;**Development Team:**&#xA;&#xA;- [Mitre](https://www.mitre.org/), a not-for-profit organization working in the public interest across federal, state and local governments, as well as industry and academia.&#xA;&#xA;- [Georgia Institute of Technology](https://www.gatech.edu/), a leading research university committed to improving the human condition through advanced science and technology&#xA;&#xA;- [Hi3 Solutions Corporation](https://www.facebook.com/hi3solutions/), a leading HIT vendor providing software solutions and professional services that promote evidence-based best practices in health.&#xA;"/>
                </extension>
                <nameUrl value="project_team.html"/>
                <title value="Project Team"/>
                <generation value="markdown"/>
            </page>
            <page>
                <extension url="https://trifolia-fhir.lantanagroup.com/StructureDefinition/extension-ig-page-filename">
                    <valueUri value="acknowledgements.md"/>
                </extension>
                <extension url="https://trifolia-on-fhir.lantanagroup.com/StructureDefinition/extension-ig-page-content">
                    <valueMarkdown value="* The content of this implementation guide draws heavily upon [Standard Death Record Implementation Guide](https://nightingaleproject.github.io/fhir-death-record/guide/index.html) developed by [MITRE](https://www.mitre.org/). &#xA;* This guide was developed using tooling and professional guidance provided by [Lantana Consulting Group](https://www.lantanagroup.com/), the makers of [Trifolia-on-FHIR](https://trifolia-fhir-dev.lantanagroup.com/)&#xA;* The VRDR FHIR IG is a work product of the [HL7 Public Health Workgroup](http://www.hl7.org/Special/committees/pher/overview.cfm). The HL7 Project Insight reference number for this project is [1475](http://www.hl7.org/Special/committees/pher/projects.cfm?action=edit&amp;ProjectNumber=1475).&#xA;* Informatics consultation for planning and testing of VRDR FHIR profiles and IHE harmonization provided by eHealthsign, LLC.&#xA;* Health Level Seven, HL7, CDA, CCD, FHIR and the [FLAME DESIGN]  are registered trademarks of Health Level Seven International, registered in the US Trademark Office.&#xA;* This material contains content from LOINC (http://loinc.org). LOINC is copyright © 1995-2020, Regenstrief Institute, Inc. and the Logical Observation Identifiers Names and Codes (LOINC) Committee and is available at no cost under the license at http://loinc.org/license. LOINC® is a registered United States trademark of Regenstrief Institute, Inc.&#xA;&#xA;The VRDR project team would like to express a special thanks to the following testing partners in their contribution to the VRDR:&#xA;&#xA;**Centers for Disease Control and Prevention:**&#xA;- Division of Cancer Prevention and Control&#xA;&#xA;**Jurisdictional Vital Records Community:**&#xA;- California Department of Public Health&#xA;- Delaware Department of Health and Social Services&#xA;- District of Columbia Health&#xA;- Georgia Department of Public Health&#xA;- Michigan Department of Health &amp; Human Services&#xA;- National Association for Public Health Statistics and Information Systems&#xA;- New Hampshire Department of Health and Human Services&#xA;- New York State Department of Health&#xA;- Utah Department of Health&#xA;&#xA;**Vendor community:**&#xA;- Altarum&#xA;- Axiell&#xA;- CNSI&#xA;- Genesis&#xA;- Outcome Healthcare&#xA;- Ruvos&#xA;- VitalChek&#xA;"/>
                </extension>
                <nameUrl value="acknowledgements.html"/>
                <title value="Acknowledgements"/>
                <generation value="markdown"/>
            </page>
            <page>
                <extension url="https://trifolia-fhir.lantanagroup.com/StructureDefinition/extension-ig-page-filename">
                    <valueUri value="background.md"/>
                </extension>
                <extension url="https://trifolia-on-fhir.lantanagroup.com/StructureDefinition/extension-ig-page-content">
                    <valueMarkdown value="CDCs National Center for Health Statistics is working closely with Federal, State, and local partners to take a fresh look at how mortality data are gathered, stored, and exchanged across the United States. They are focused on adopting best practices for information exchange that lessen the burden on data providers (e.g., vital records offices, medical examiner and coroner offices, toxicology labs) while providing a seamlessly automated data feed to public health and public safety data requestors. &#xA;&#xA;To help make the mortality data ecosystem more connected, adaptable, and robust, they have chosen to leverage modern technologies and approaches, such as RESTful based APIs and HL7s Fast Healthcare Interoperability Resources (FHIR) standard.&#xA;&#xA;This implementation guide is an initial step to help define a common set of protocols and practices that developers can rely on to enhance their existing products and build solutions to help make mortality data flow more seamlessly.&#xA;&#xA;# **Change History **&#xA;&#xA;**August 2021 STU2 pre-ballot changes**&#xA;&#xA;* Added patient-birthPlace extension to resource profile Decedent&#xA;* Modified the terminology binding for the contact.relationship element in the resource profile Decedent to match the HL7v2.6 specification&#xA;* Modified resource profile Cause Of Death Condition to use USCoreCondition as its base profile and include the element condition.category &#xA;* Modified Cause Of Death Condition Example to include the element condition.category &#xA;* Modified resource profile Condition Contributing To Death to use USCoreCondition as its base profile and include the element condition.category &#xA;* Modified Condition Contributing To Death Example to include the element condition.category&#xA;* Added a section on recent change history to the background page.&#xA;*	Added Extension - Date Part Absent Reason from the vital records common library IG&#xA;* Added Extension - Date Part Absent Reason to VRDR Decedent.birthdate&#xA;* Added Extension - Date Part Absent Reason to VRDR Death Date.valueDateTime&#xA;* Corrected the display name for LOINC code ‘81956-5’ - Date and time of death&#xA;* Modified the cardinality of Resource Profile: Cause of Death Pathway entry from (0..*) to (1..*)&#xA;* Added Observation.dataAbsentReason to Resource Profile: Decedent's age&#xA;* Added Observation.dataAbsentReason to Resource Profile: Birth Record Identifier&#xA;* Added constraint on VRDR Decedent.address.city to require it be a five-digit numeric value greater than zero and less than 100000.&#xA;* Modified value set bindings for	VRDR Decedent	.address.district - PHVS_DivisionVitalStatistics__County&#xA;* Modified value set bindings for	VRDR Decedent[Residence].address.country - PHVS_DecedentResident_County&#xA;* Modified value set bindings for	VRDR Decedent[Birthplace].address.country - PHVS_DecedentBirthplace_County&#xA;* Modified value set bindings for	VRDR Death Location.address.district - PHVS_DivisionVitalStatistics__County&#xA;* Modified value set bindings for	VRDR Decedent Military Service	.valueCodeableConcept - PHVS_YesNoUnknown_CDC&#xA;* Modified value set bindings for	VRDR Examiner Contacted.valueCodeableConcept - PHVS_YesNoUnknown_CDC*&#xA;*	Added position.longitude and position.latitude to Resource Profile: Death Location&#xA;*	Added position.longitude and position.latitude to Resource Profile: Injury Location&#xA;*	Changed URL for Extension: LocationJurisdictionId to http://hl7.org/fhir/us/vrdr/StructureDefinition/Location-Jurisdiction-Id&#xA;* Changed cardinality on Location-Jurisdiction-Id in Resource Profile: Death Location to 1..1&#xA;*	Constrained Extension: Observation Location.value[x] to Reference(Location)&#xA;*	Updated instance examples of modified resource profiles to reflect changes&#xA;* Added requirement for use of meta.profile to identify the profile version to which the resource instance complies. &#xA;*	Added a dependency to the vital records common library IG&#xA;* Changed the name of the guide from Vital Records Mortality and Morbidity Reporting FHIR Implementation Guide to Vital Records Death Reporting FHIR Implementation Guide&#xA;*	Changed author from Hetty Khan to Cynthia Bush&#xA;* Changed release label from STU 1 to STU 2 and version from 1.0.0 to 1.1.0&#xA;&#xA;&#xA;"/>
                </extension>
                <nameUrl value="background.html"/>
                <title value="Background"/>
                <generation value="markdown"/>
                <page>
                    <extension url="https://trifolia-fhir.lantanagroup.com/StructureDefinition/extension-ig-page-filename">
                        <valueUri value="death_reporting_dataflow.md"/>
                    </extension>
                    <extension url="https://trifolia-on-fhir.lantanagroup.com/StructureDefinition/extension-ig-page-content">
                        <valueMarkdown value="The following diagram depicts the major flow of vital records of death information. Information about the decedent is captured from a variety of sources, including but not limited to electronic health record systems. Death investigation activities yield additional information concerning the manner of death, factors contributing to the cause of death, and the causal pathway of the cause of death conditions. &#xA;&#xA;&lt;table&gt;&lt;tr&gt;&lt;td&gt;&lt;img src=&quot;image002.png&quot; style=&quot;width:100%;&quot;/&gt;&lt;/td&gt;&lt;/tr&gt;&lt;/table&gt;&#xA;&#xA;Medicolegal Death Investigators file death certifications with state death registrars where that data are combined with information concerning the disposition of the descendants remains. State registrars report death incidents occurring in their jurisdiction to the CDCs National Center for Health Statistics (NCHS).&#xA;&#xA;"/>
                    </extension>
                    <nameUrl value="death_reporting_dataflow.html"/>
                    <title value="Death Reporting Dataflow"/>
                    <generation value="markdown"/>
                </page>
                <page>
                    <extension url="https://trifolia-fhir.lantanagroup.com/StructureDefinition/extension-ig-page-filename">
                        <valueUri value="scope_of_the_vrdr_fhir_ig.md"/>
                    </extension>
                    <extension url="https://trifolia-on-fhir.lantanagroup.com/StructureDefinition/extension-ig-page-content">
                        <valueMarkdown value="The scope of this VRDR FHIR IG is the reporting of incidents of death by State Registrars to the NCHS. The data content of this dataflow contains an aggregation of data collected in preceding dataflows and used in additional dataflows related to the secondary use of death information such as clinical research, law enforcement, and health policy determination. &#xA;&#xA;&lt;center&gt;&#xA;&lt;table&gt;&lt;tr&gt;&lt;td&gt;&lt;img src=&quot;Scope.png&quot; style=&quot;width:100%;&quot;/&gt;&lt;/td&gt;&lt;/tr&gt;&lt;/table&gt;&#xA;&lt;/center&gt;&#xA;&#xA;While the scope of this IG is limited to death reporting by State Registrars to the NCHS, the FHIR Resource Profiles have been designed with the intent of being reusable in related preceding and antecedent dataflows.&#xA;&#xA;The actors supported in this implementation guide include:&#xA;&#xA;* Regional Electronic Death Registration System (EDRS)&#xA;* The National Vital Statistics System (NVSS)&#xA;* Secondary Users of Death Information (Secondary Users)&#xA;&#xA;&lt;table&gt;&lt;tr&gt;&lt;td&gt;&lt;img src=&quot;Sequences.png&quot; style=&quot;width:100%;&quot;/&gt;&lt;/td&gt;&lt;/tr&gt;&lt;/table&gt;&#xA;&#xA;The sequence of exchanges supported in this implementation guide include:&#xA;&#xA;*** (5) Draft death certificate document from regional EDRS to the NVSS.**&#xA;&#xA;In this exchange the regional EDRS sends a draft of the death certificate document with text values for causes of death and decedent race/ethnicity to the NVSS to be encoded.&#xA;&#xA;*** (6) Standardized cause of death and decedent race/ethnicity coding from the NVSS to regional EDRS.**&#xA;&#xA;In this exchange the NVSS returns the draft death certificate document with coded values for causes of death and decedent race/ethnicity to the regional EDRS.&#xA;&#xA;*** (7) Final death certificate document from regional EDRS to the NVSS.**&#xA;&#xA;In this exchange the regional EDRS send the final death certificate to the NVSS. This exchange also supports the sending of a revised, amended, or replacement death certificate.&#xA;&#xA;*** (8) Death certificate document from the NVSS to death information secondary users.**&#xA;&#xA;In this exchange the NVSS sends a copy of the death certificate document it received from the regional EDRS to secondary users of death information.&#xA;&#xA;*** (9) Death certificate document from regional EDRS to death information secondary users.**&#xA;&#xA;In this exchange the regional EDRS send a copy of the final death certificate document to secondary users of death information."/>
                    </extension>
                    <nameUrl value="scope_of_the_vrdr_fhir_ig.html"/>
                    <title value="Scope of the VRDR FHIR IG"/>
                    <generation value="markdown"/>
                </page>
            </page>
            <page>
                <extension url="https://trifolia-fhir.lantanagroup.com/StructureDefinition/extension-ig-page-filename">
                    <valueUri value="profiles.md"/>
                </extension>
                <extension url="https://trifolia-on-fhir.lantanagroup.com/StructureDefinition/extension-ig-page-content">
                    <valueMarkdown value="The VRDR FHIR IG makes use of 33 FHIR Resource Profiles. The content profiles are grouped into 4 profile groups. Each profile group represents an aspect of the data collected on the [U.S. Standard Certificate of Death](https://www.cdc.gov/nchs/data/dvs/DEATH11-03final-ACC.pdf).&#xA;&#xA;A. ***Decedent Demographics:*** is a profile group comprised of profiles containing decedent demographic data. Demograhic data includes information about related persons (Mother, Father, and Spouse) and social determinants such as education level and usual occupation. The information in this profile group are provided by a decedent informant.&#xA;&#xA;B. ***Death Investigation:*** is a profile group comprised of profiles containing data obtained during the course of investigating a death. Many of these items are conditionally present in a death certification transaction depending on whether or not a autopsy was performed, an injury incident occurred, or a transportation event was involved.&#xA;&#xA;C. ***Death Certification:*** is a profile group comprised of profiles containing data related to the primary concern of the VRDR IG, Death Certification. In this group the causes of death and the causal pathway are documented and attested to by a death certifier (coroner or medical examiner).&#xA;&#xA;D. ***Decedent Disposition:*** is a profile group comprised of profiles containing data related to the disposition of the decedents remains. The data in this profile group is typically provided by the funeral home performing the disposition services. The content of this profile group is authenticated by the funeral home director.&#xA;&#xA;&lt;table&gt;&lt;tr&gt;&lt;td&gt;&lt;img src=&quot;ProfileInventory.jpg&quot; style=&quot;width:100%;&quot;/&gt;&lt;/td&gt;&lt;/tr&gt;&lt;/table&gt;"/>
                </extension>
                <nameUrl value="profiles.html"/>
                <title value="Profiles"/>
                <generation value="markdown"/>
                <page>
                    <extension url="https://trifolia-fhir.lantanagroup.com/StructureDefinition/extension-ig-page-filename">
                        <valueUri value="vrdr_fhir_ig_uml_data_model.md"/>
                    </extension>
                    <extension url="https://trifolia-on-fhir.lantanagroup.com/StructureDefinition/extension-ig-page-content">
                        <valueMarkdown value="The [VRDR FHIR IG UML Data Model](http://www.hl7.org/documentcenter/public/wg/pher/Profile%20Structural%20Definitions.png) is a graphical representation of the VRDR FHIR IG resource profile structural definitions. The diagram uses the Unified Modeling Language (UML) notation wherein each class represents a resource profile, attributes represent constrained resource elements, and relationships represent directed references from one profile to another. The color scheme used for classes are based upon the partitioning of the IG into four profile groups.&#xA;&#xA;&lt;center&gt;&#xA;	&lt;table&gt;&lt;tr&gt;&lt;td&gt;&lt;img src=&quot;Profile Structural Definitions.png&quot; style=&quot;width:100%;&quot;/&gt;&lt;/td&gt;&lt;/tr&gt;&lt;/table&gt;&#xA;	&lt;/center&gt;"/>
                    </extension>
                    <nameUrl value="vrdr_fhir_ig_uml_data_model.html"/>
                    <title value="VRDR FHIR IG UML Data Model"/>
                    <generation value="markdown"/>
                </page>
                <page>
                    <extension url="https://trifolia-fhir.lantanagroup.com/StructureDefinition/extension-ig-page-filename">
                        <valueUri value="decedent_demographics_resource_profiles.md"/>
                    </extension>
                    <extension url="https://trifolia-on-fhir.lantanagroup.com/StructureDefinition/extension-ig-page-content">
                        <valueMarkdown value="A. ***Decedent Demographics:*** is a profile group comprised of profiles containing decedent demographic data. Demograhic data includes information about related persons (Mother, Father, and Spouse) and social determinants such as education level and usual occupation. The information in this profile group are provided by a decedent informant.&#xA;&#xA;&lt;center&gt;&#xA;&lt;table&gt;&lt;tr&gt;&lt;td&gt;&lt;img src=&quot;A. Decedent.png&quot; style=&quot;width:100%;&quot;/&gt;&lt;/td&gt;&lt;/tr&gt;&lt;/table&gt;&#xA;&lt;/center&gt;&#xA;&#xA;The following tables indicates tracibility between decedent demographic resource profile elements and data items on the [U.S. Standard Certificate of Death](https://www.cdc.gov/nchs/data/dvs/DEATH11-03final-ACC.pdf) data collection form.&#xA;&#xA;&lt;center&gt;&#xA;&lt;table&gt;&lt;tr&gt;&lt;td&gt;&lt;img src=&quot;Decedent subdomain to DCF.png&quot; style=&quot;width:100%;&quot;/&gt;&lt;/td&gt;&lt;/tr&gt;&lt;/table&gt;&#xA;&lt;/center&gt;"/>
                    </extension>
                    <nameUrl value="decedent_demographics_resource_profiles.html"/>
                    <title value="Decedent Demographics Resource Profiles"/>
                    <generation value="markdown"/>
                </page>
                <page>
                    <extension url="https://trifolia-fhir.lantanagroup.com/StructureDefinition/extension-ig-page-filename">
                        <valueUri value="death_investigation_resource_profiles.md"/>
                    </extension>
                    <extension url="https://trifolia-on-fhir.lantanagroup.com/StructureDefinition/extension-ig-page-content">
                        <valueMarkdown value="B. ***Death Investigation:*** is a profile group comprised of profiles containing data obtained during the course of investigating a death. Many of these items are conditionally present in a death certification transaction depending on whether or not an autopy was performed, an injury incident occurred, or a transportation event was involved.&#xA;&#xA;&lt;center&gt;&#xA;	&lt;table&gt;&lt;tr&gt;&lt;td&gt;&lt;img src=&quot;B. Death Investigation.png&quot; style=&quot;width:100%;&quot;/&gt;&lt;/td&gt;&lt;/tr&gt;&lt;/table&gt;&#xA;	&lt;/center&gt;&#xA;&#xA;The following tables indicates tracibility between death investigation resource profile elements and data items on the [U.S. Standard Certificate of Death](https://www.cdc.gov/nchs/data/dvs/DEATH11-03final-ACC.pdf) data collection form.&#xA;&#xA;&lt;center&gt;&#xA;	&lt;table&gt;&lt;tr&gt;&lt;td&gt;&lt;img src=&quot;Death Investigation Subdomain to DCF.png&quot; style=&quot;width:100%;&quot;/&gt;&lt;/td&gt;&lt;/tr&gt;&lt;/table&gt;&#xA;	&lt;/center&gt;&#xA;	"/>
                    </extension>
                    <nameUrl value="death_investigation_resource_profiles.html"/>
                    <title value="Death Investigation Resource Profiles"/>
                    <generation value="markdown"/>
                </page>
                <page>
                    <extension url="https://trifolia-fhir.lantanagroup.com/StructureDefinition/extension-ig-page-filename">
                        <valueUri value="death_certification_resource_profiles.md"/>
                    </extension>
                    <extension url="https://trifolia-on-fhir.lantanagroup.com/StructureDefinition/extension-ig-page-content">
                        <valueMarkdown value="C. ***Death Certification:*** is a profile group comprised of profiles containing data related to the primary concern of the VRDR IG, Death Certification. In this group the causes of death and the causal pathway are documented and attested to by a death certifier (coroner or medical examiner).&#xA;&#xA;&lt;center&gt;&#xA;	&lt;table&gt;&lt;tr&gt;&lt;td&gt;&lt;img src=&quot;C. Death Certification.png&quot; style=&quot;width:100%;&quot;/&gt;&lt;/td&gt;&lt;/tr&gt;&lt;/table&gt;&#xA;	&lt;/center&gt;&#xA;	&#xA;The following tables indicates tracibility between death certification resource profile elements and data items on the [U.S. Standard Certificate of Death](https://www.cdc.gov/nchs/data/dvs/DEATH11-03final-ACC.pdf) data collection form.&#xA;&#xA;&lt;center&gt;&#xA;	&lt;table&gt;&lt;tr&gt;&lt;td&gt;&lt;img src=&quot;Death Certification subdomain to DCF.png&quot; style=&quot;width:100%;&quot;/&gt;&lt;/td&gt;&lt;/tr&gt;&lt;/table&gt;&#xA;	&lt;/center&gt;&#xA;	"/>
                    </extension>
                    <nameUrl value="death_certification_resource_profiles.html"/>
                    <title value="Death Certification Resource Profiles"/>
                    <generation value="markdown"/>
                </page>
                <page>
                    <extension url="https://trifolia-fhir.lantanagroup.com/StructureDefinition/extension-ig-page-filename">
                        <valueUri value="decedent_disposition_resource_profiles.md"/>
                    </extension>
                    <extension url="https://trifolia-on-fhir.lantanagroup.com/StructureDefinition/extension-ig-page-content">
                        <valueMarkdown value="D. ***Decedent Disposition:*** is a profile group comprised of profiles containing data related to the disposition of the decedents remains. The data in this profile group is typically provided by the funeral home performing the disposition services. The content of this profile group is authenticated by the funeral home director.&#xA;&#xA;&lt;center&gt;&#xA;	&lt;table&gt;&lt;tr&gt;&lt;td&gt;&lt;img src=&quot;D. Decedent Disposition.png&quot; style=&quot;width:100%;&quot;/&gt;&lt;/td&gt;&lt;/tr&gt;&lt;/table&gt;&#xA;	&lt;/center&gt;&#xA;	&#xA;The following tables indicates tracibility between decedent disposition resource profile elements and data items on the [U.S. Standard Certificate of Death](https://www.cdc.gov/nchs/data/dvs/DEATH11-03final-ACC.pdf) data collection form.&#xA;&#xA;&lt;center&gt;&#xA;	&lt;table&gt;&lt;tr&gt;&lt;td&gt;&lt;img src=&quot;Decedent Disposition subdomain to DCF.png&quot; style=&quot;width:100%;&quot;/&gt;&lt;/td&gt;&lt;/tr&gt;&lt;/table&gt;&#xA;	&lt;/center&gt;&#xA;	"/>
                    </extension>
                    <nameUrl value="decedent_disposition_resource_profiles.html"/>
                    <title value="Decedent Disposition Resource Profiles"/>
                    <generation value="markdown"/>
                </page>
            </page>
            <page>
                <extension url="https://trifolia-fhir.lantanagroup.com/StructureDefinition/extension-ig-page-filename">
                    <valueUri value="terminology_bindings.md"/>
                </extension>
                <extension url="https://trifolia-on-fhir.lantanagroup.com/StructureDefinition/extension-ig-page-content">
                    <valueMarkdown value="Terminology binding is part of process of preparing a resource profile specification. If the resource element is a codeable element the resource profile specifies the code system, code system term, or value set from which the allowable concepts for the resource element are drawn. The terminology binding can be to an entire code system - **Code System Binding (CS)**, a single code system term - **Fixed Value Binding (CST)**, or to a collection of code system terms - **Value Set Binding (VS)**.&#xA;&#xA;The following table contains the teminology bindings for FHIR resource profile elements directly related to coded data items in the [U.S. Standard Certificate of Death](https://www.cdc.gov/nchs/data/dvs/DEATH11-03final-ACC.pdf). A complete set of terminology bindings is included for each resource profile on their respective structure definition page. &#xA;&#xA;&lt;center&gt;&#xA;	&lt;table&gt;&lt;tr&gt;&lt;td&gt;&lt;img src=&quot;TerminologyBindings.png&quot; style=&quot;width:100%;&quot;/&gt;&lt;/td&gt;&lt;/tr&gt;&lt;/table&gt;&#xA;	&lt;/center&gt;"/>
                </extension>
                <nameUrl value="terminology_bindings.html"/>
                <title value="Terminology Bindings"/>
                <generation value="markdown"/>
            </page>
            <page>
                <extension url="https://trifolia-fhir.lantanagroup.com/StructureDefinition/extension-ig-page-nav-menu">
                    <valueString value="Downloads"/>
                </extension>
                <extension url="https://trifolia-fhir.lantanagroup.com/StructureDefinition/extension-ig-page-filename">
                    <valueUri value="downloads.md"/>
                </extension>
                <extension url="https://trifolia-on-fhir.lantanagroup.com/StructureDefinition/extension-ig-page-content">
                    <valueMarkdown value="**Full Implementation Guide**\n\nThe entire implementation guide (including the HTML files, definitions, validation information, etc.) may be downloaded [here](full-ig.zip).\n\nIn addition there are format specific definitions files.\n\n* [XML](definitions.xml.zip)\n* [JSON](definitions.json.zip)\n* [TTL](definitions.ttl.zip)\n\n**Examples:** all the examples that are used in this Implementation Guide available for download:\n\n* [XML](examples.xml.zip)\n* [JSON](examples.json.zip)\n* [TTl](examples.ttl.zip)"/>
                </extension>
                <nameUrl value="downloads.html"/>
                <title value="Downloads"/>
                <generation value="markdown"/>
            </page>
        </page>
        <parameter>
            <code value="releaselabel"/>
            <value value="STU 2"/>
        </parameter>
        <parameter>
            <code value="copyrightyear"/>
            <value value="2021+"/>
        </parameter>
    </definition>
</ImplementationGuide>