{
  "resourceType" : "Bundle",
  "id" : "DeathCertificateDocument-UT-1",
  "meta" : {
    "profile" : ["http://hl7.org/fhir/us/vrdr/StructureDefinition/vrdr-death-certificate-document"]
  },
  "identifier" : {
    "extension" : [{
      "url" : "http://hl7.org/fhir/us/vr-common-library/StructureDefinition/CertificateNumber",
      "valueString" : "000003"
    },
    {
      "url" : "http://hl7.org/fhir/us/vr-common-library/StructureDefinition/AuxiliaryStateIdentifier1",
      "valueString" : "2022000003"
    }],
    "system" : "http://nchs.cdc.gov/vrdr_id",
    "value" : "2022UT000003"
  },
  "type" : "document",
  "timestamp" : "2022-12-23T19:55:16.4587968+00:00",
  "entry" : [{
    "fullUrl" : "http://www.example.org/fhir/Composition/DeathCertificateUT-Example1",
    "resource" : {
      "resourceType" : "Composition",
      "id" : "DeathCertificateUT-Example1",
      "meta" : {
        "profile" : ["http://hl7.org/fhir/us/vrdr/StructureDefinition/vrdr-death-certificate"]
      },
      "text" : {
        "status" : "extensions",
        "div" : "<div xmlns=\"http://www.w3.org/1999/xhtml\"><p><b>Generated Narrative: Composition</b><a name=\"DeathCertificateUT-Example1\"> </a></p><div style=\"display: inline-block; background-color: #d9e0e7; padding: 6px; margin: 4px; border: 1px solid #8da1b4; border-radius: 5px; line-height: 60%\"><p style=\"margin-bottom: 0px\">Resource Composition &quot;DeathCertificateUT-Example1&quot; </p><p style=\"margin-bottom: 0px\">Profile: <a href=\"StructureDefinition-vrdr-death-certificate.html\">Death Certificate</a></p></div><p><b>Filing Format</b>: Electronic <span style=\"background: LightGoldenRodYellow; margin: 4px; border: 1px solid khaki\"> (<a href=\"CodeSystem-vrdr-filing-format-cs.html\">Filing Formats</a>#electronic)</span></p><p><b>State Specific Field</b>: 20220101</p><p><b>status</b>: final</p><p><b>type</b>: Death certificate <span style=\"background: LightGoldenRodYellow; margin: 4px; border: 1px solid khaki\"> (<a href=\"https://loinc.org/\">LOINC</a>#64297-5)</span></p><p><b>date</b>: 2022-12-01 02:46:13-0500</p><p><b>author</b>: <a href=\"#Practitioner_PractitionerUT-Certifier\">See above (Practitioner/PractitionerUT-Certifier)</a></p><p><b>title</b>: Death Certificate for Davis Lineberry Jr</p><h3>Attesters</h3><table class=\"grid\"><tr><td style=\"display: none\">-</td><td><b>Mode</b></td><td><b>Party</b></td></tr><tr><td style=\"display: none\">*</td><td>legal</td><td><a href=\"#Practitioner_PractitionerUT-Certifier\">See above (Practitioner/PractitionerUT-Certifier)</a></td></tr></table><h3>Events</h3><table class=\"grid\"><tr><td style=\"display: none\">-</td><td><b>Code</b></td><td><b>Detail</b></td></tr><tr><td style=\"display: none\">*</td><td>Death certificate (record artifact) <span style=\"background: LightGoldenRodYellow; margin: 4px; border: 1px solid khaki\"> (<a href=\"https://browser.ihtsdotools.org/\">SNOMED CT</a>#307930005)</span></td><td><a href=\"#Procedure_ProcedureDeathCertificationUT-Example1\">See above (Procedure/ProcedureDeathCertificationUT-Example1)</a></td></tr></table></div>"
      },
      "extension" : [{
        "url" : "http://hl7.org/fhir/us/vrdr/StructureDefinition/FilingFormat",
        "valueCodeableConcept" : {
          "coding" : [{
            "system" : "http://hl7.org/fhir/us/vrdr/CodeSystem/vrdr-filing-format-cs",
            "code" : "electronic"
          }]
        }
      },
      {
        "url" : "http://hl7.org/fhir/us/vrdr/StructureDefinition/StateSpecificField",
        "valueString" : "20220101"
      }],
      "status" : "final",
      "type" : {
        "coding" : [{
          "system" : "http://loinc.org",
          "code" : "64297-5",
          "display" : "Death certificate"
        }]
      },
      "subject" : {
        "reference" : "Patient/DecedentUT-Example1"
      },
      "date" : "2022-12-01T02:46:13-05:00",
      "author" : [{
        "reference" : "Practitioner/PractitionerUT-Certifier"
      }],
      "title" : "Death Certificate for Davis Lineberry Jr",
      "attester" : [{
        "mode" : "legal",
        "party" : {
          "reference" : "Practitioner/PractitionerUT-Certifier"
        }
      }],
      "event" : [{
        "code" : [{
          "coding" : [{
            "system" : "http://snomed.info/sct",
            "code" : "307930005",
            "display" : "Death certificate (record artifact)"
          }]
        }],
        "detail" : [{
          "reference" : "Procedure/ProcedureDeathCertificationUT-Example1"
        }]
      }],
      "section" : [{
        "code" : {
          "coding" : [{
            "system" : "http://hl7.org/fhir/us/vrdr/CodeSystem/vrdr-document-section-cs",
            "code" : "DecedentDemographics"
          }]
        },
        "entry" : [{
          "reference" : "Patient/DecedentUT-Example1"
        },
        {
          "reference" : "Observation/BirthRecordIdentifierUT-Example1"
        },
        {
          "reference" : "Observation/InputRaceAndEthnicityUT-Example1"
        },
        {
          "reference" : "Observation/EducationUT-Example1"
        },
        {
          "reference" : "Observation/AgeUT-Example1"
        },
        {
          "reference" : "RelatedPerson/FatherUT-Example1"
        },
        {
          "reference" : "RelatedPerson/MotherUT-Example1"
        },
        {
          "reference" : "Observation/UsualWorkUT-Example1"
        },
        {
          "reference" : "Observation/MilitaryServiceUT-Example1"
        },
        {
          "reference" : "Observation/EmergingIssuesUT-Example1"
        }]
      },
      {
        "code" : {
          "coding" : [{
            "system" : "http://hl7.org/fhir/us/vrdr/CodeSystem/vrdr-document-section-cs",
            "code" : "DeathCertification"
          }]
        },
        "entry" : [{
          "reference" : "Practitioner/PractitionerUT-Certifier"
        },
        {
          "reference" : "Observation/InjuryIncidentUT-Example1"
        },
        {
          "reference" : "Procedure/ProcedureDeathCertificationUT-Example1"
        }]
      },
      {
        "code" : {
          "coding" : [{
            "system" : "http://hl7.org/fhir/us/vrdr/CodeSystem/vrdr-document-section-cs",
            "code" : "DeathInvestigation"
          }]
        },
        "entry" : [{
          "reference" : "Observation/AutopsyPerformedIndicatorUT-Example1"
        },
        {
          "reference" : "Observation/CauseOfDeathPart1UT-Example1"
        },
        {
          "reference" : "Observation/DeathDateUT-Example1"
        },
        {
          "reference" : "Observation/PregnancyUT-Example1"
        },
        {
          "reference" : "Observation/TobaccoUseUT-Example1"
        },
        {
          "reference" : "Location/DeathLocationUT-Example1"
        },
        {
          "reference" : "Observation/MannerOfDeathUT-Example1"
        }]
      },
      {
        "code" : {
          "coding" : [{
            "system" : "http://hl7.org/fhir/us/vrdr/CodeSystem/vrdr-document-section-cs",
            "code" : "DecedentDisposition"
          }]
        },
        "entry" : [{
          "reference" : "Organization/FuneralHomeUT-Example1"
        },
        {
          "reference" : "Observation/DispositionMethodUT-Example1"
        },
        {
          "reference" : "Location/DispositionLocationUT-Example1"
        }]
      }]
    }
  },
  {
    "fullUrl" : "http://www.example.org/fhir/Patient/DecedentUT-Example1",
    "resource" : {
      "resourceType" : "Patient",
      "id" : "DecedentUT-Example1",
      "meta" : {
        "profile" : ["http://hl7.org/fhir/us/vrdr/StructureDefinition/vrdr-decedent"]
      },
      "text" : {
        "status" : "extensions",
        "div" : "<div xmlns=\"http://www.w3.org/1999/xhtml\"><p><b>Generated Narrative: Patient</b><a name=\"DecedentUT-Example1\"> </a></p><div style=\"display: inline-block; background-color: #d9e0e7; padding: 6px; margin: 4px; border: 1px solid #8da1b4; border-radius: 5px; line-height: 60%\"><p style=\"margin-bottom: 0px\">Resource Patient &quot;DecedentUT-Example1&quot; </p><p style=\"margin-bottom: 0px\">Profile: <a href=\"StructureDefinition-vrdr-decedent.html\">Decedent</a></p></div><p><b>NVSS SexAtDeath</b>: Male <span style=\"background: LightGoldenRodYellow; margin: 4px; border: 1px solid khaki\"> (<a href=\"http://hl7.org/fhir/R4/codesystem-administrative-gender.html\">AdministrativeGender</a>#male)</span></p><p><b>Patient Birth Place</b>: CO US (OLD)</p><p><b>identifier</b>: Social Security number: &lt;a href=&quot;http://terminology.hl7.org/5.0.0/NamingSystem-ssn.html&quot;&gt;SSN&lt;/a&gt;#429471420</p><p><b>name</b>: Davis Lineberry (OFFICIAL)</p><p><b>gender</b>: male</p><p><b>birthDate</b>: 2021-03-04</p><p><b>address</b>: 2722 N Pin Oak Dr Laramie WY 82070 US </p><p><b>maritalStatus</b>: Never Married <span style=\"background: LightGoldenRodYellow; margin: 4px; border: 1px solid khaki\"> (<a href=\"http://terminology.hl7.org/6.0.2/CodeSystem-v3-MaritalStatus.html\">MaritalStatus</a>#S)</span></p></div>"
      },
      "extension" : [{
        "url" : "http://hl7.org/fhir/us/vrdr/StructureDefinition/NVSS-SexAtDeath",
        "valueCodeableConcept" : {
          "coding" : [{
            "system" : "http://hl7.org/fhir/administrative-gender",
            "code" : "male",
            "display" : "Male"
          }]
        }
      },
      {
        "url" : "http://hl7.org/fhir/StructureDefinition/patient-birthPlace",
        "valueAddress" : {
          "use" : "old",
          "state" : "CO",
          "country" : "US"
        }
      }],
      "identifier" : [{
        "type" : {
          "coding" : [{
            "system" : "http://terminology.hl7.org/CodeSystem/v2-0203",
            "code" : "SS"
          }]
        },
        "system" : "http://hl7.org/fhir/sid/us-ssn",
        "value" : "429471420"
      }],
      "name" : [{
        "use" : "official",
        "family" : "Lineberry",
        "given" : ["Davis"],
        "suffix" : ["Jr"]
      }],
      "gender" : "male",
      "birthDate" : "2021-03-04",
      "address" : [{
        "extension" : [{
          "url" : "http://hl7.org/fhir/us/vr-common-library/StructureDefinition/StreetNumber",
          "valueString" : "2722"
        },
        {
          "url" : "http://hl7.org/fhir/us/vr-common-library/StructureDefinition/PreDirectional",
          "valueString" : "N"
        },
        {
          "url" : "http://hl7.org/fhir/us/vr-common-library/StructureDefinition/StreetName",
          "valueString" : "Pin Oak"
        },
        {
          "url" : "http://hl7.org/fhir/us/vr-common-library/StructureDefinition/StreetDesignator",
          "valueString" : "Dr"
        },
        {
          "url" : "http://hl7.org/fhir/us/vr-common-library/StructureDefinition/Extension-within-city-limits-indicator-vr",
          "valueCoding" : {
            "system" : "http://terminology.hl7.org/CodeSystem/v2-0136",
            "code" : "Y",
            "display" : "Yes"
          }
        }],
        "line" : ["2722 N Pin Oak Dr"],
        "city" : "Laramie",
        "_city" : {
          "extension" : [{
            "url" : "http://hl7.org/fhir/us/vr-common-library/StructureDefinition/CityCode",
            "valuePositiveInt" : 45050
          }]
        },
        "district" : "Albany",
        "_district" : {
          "extension" : [{
            "url" : "http://hl7.org/fhir/us/vr-common-library/StructureDefinition/DistrictCode",
            "valuePositiveInt" : 1
          }]
        },
        "state" : "WY",
        "postalCode" : "82070",
        "country" : "US"
      }],
      "maritalStatus" : {
        "extension" : [{
          "url" : "http://hl7.org/fhir/us/vr-common-library/StructureDefinition/BypassEditFlag",
          "valueCodeableConcept" : {
            "coding" : [{
              "system" : "http://hl7.org/fhir/us/vr-common-library/CodeSystem/CodeSystem-vr-edit-flags",
              "code" : "0",
              "display" : "Edit Passed"
            }]
          }
        }],
        "coding" : [{
          "system" : "http://terminology.hl7.org/CodeSystem/v3-MaritalStatus",
          "code" : "S",
          "display" : "Never Married"
        }]
      }
    }
  },
  {
    "fullUrl" : "http://www.example.org/fhir/Procedure/ProcedureDeathCertificationUT-Example1",
    "resource" : {
      "resourceType" : "Procedure",
      "id" : "ProcedureDeathCertificationUT-Example1",
      "meta" : {
        "profile" : ["http://hl7.org/fhir/us/vrdr/StructureDefinition/vrdr-death-certification"]
      },
      "text" : {
        "status" : "generated",
        "div" : "<div xmlns=\"http://www.w3.org/1999/xhtml\"><p><b>Generated Narrative: Procedure</b><a name=\"ProcedureDeathCertificationUT-Example1\"> </a></p><div style=\"display: inline-block; background-color: #d9e0e7; padding: 6px; margin: 4px; border: 1px solid #8da1b4; border-radius: 5px; line-height: 60%\"><p style=\"margin-bottom: 0px\">Resource Procedure &quot;ProcedureDeathCertificationUT-Example1&quot; </p><p style=\"margin-bottom: 0px\">Profile: <a href=\"StructureDefinition-vrdr-death-certification.html\">Death Certification Procedure</a></p></div><p><b>identifier</b>: id:\u00a0161632-1999</p><p><b>status</b>: completed</p><p><b>code</b>: Death certification <span style=\"background: LightGoldenRodYellow; margin: 4px; border: 1px solid khaki\"> (<a href=\"https://browser.ihtsdotools.org/\">SNOMED CT</a>#308646001)</span></p><p><b>subject</b>: <a href=\"#Patient_DecedentUT-Example1\">See above (Patient/DecedentUT-Example1)</a></p><p><b>performed</b>: 2021-11-14 16:39:40-0500</p><h3>Performers</h3><table class=\"grid\"><tr><td style=\"display: none\">-</td><td><b>Function</b></td><td><b>Actor</b></td></tr><tr><td style=\"display: none\">*</td><td>Death certification and verification by physician (procedure) <span style=\"background: LightGoldenRodYellow; margin: 4px; border: 1px solid khaki\"> (<a href=\"https://browser.ihtsdotools.org/\">SNOMED CT</a>#434641000124105)</span></td><td><a href=\"#Practitioner_PractitionerUT-Certifier\">See above (Practitioner/PractitionerUT-Certifier)</a></td></tr></table></div>"
      },
      "identifier" : [{
        "value" : "161632-1999"
      }],
      "status" : "completed",
      "code" : {
        "coding" : [{
          "system" : "http://snomed.info/sct",
          "code" : "308646001"
        }]
      },
      "subject" : {
        "reference" : "Patient/DecedentUT-Example1"
      },
      "performedDateTime" : "2021-11-14T16:39:40-05:00",
      "performer" : [{
        "function" : {
          "coding" : [{
            "system" : "http://snomed.info/sct",
            "code" : "434641000124105",
            "display" : "Death certification and verification by physician (procedure)"
          }]
        },
        "actor" : {
          "reference" : "Practitioner/PractitionerUT-Certifier"
        }
      }]
    }
  },
  {
    "fullUrl" : "http://www.example.org/fhir/Practitioner/PractitionerUT-Certifier",
    "resource" : {
      "resourceType" : "Practitioner",
      "id" : "PractitionerUT-Certifier",
      "meta" : {
        "profile" : ["http://hl7.org/fhir/us/vrdr/StructureDefinition/vrdr-certifier"]
      },
      "text" : {
        "status" : "extensions",
        "div" : "<div xmlns=\"http://www.w3.org/1999/xhtml\"><p><b>Generated Narrative: Practitioner</b><a name=\"PractitionerUT-Certifier\"> </a></p><div style=\"display: inline-block; background-color: #d9e0e7; padding: 6px; margin: 4px; border: 1px solid #8da1b4; border-radius: 5px; line-height: 60%\"><p style=\"margin-bottom: 0px\">Resource Practitioner &quot;PractitionerUT-Certifier&quot; </p><p style=\"margin-bottom: 0px\">Profile: <a href=\"StructureDefinition-vrdr-certifier.html\">Death Certifier</a></p></div><p><b>Practitioner Role</b>: Certifier</p><p><b>identifier</b>: id:\u00a0&lt;a href=&quot;http://terminology.hl7.org/5.0.0/NamingSystem-npi.html&quot;&gt;NPI&lt;/a&gt;#161632-1999</p><p><b>name</b>: William Henry Harrison (OFFICIAL)</p><p><b>address</b>: 123 Fake St apt # 123 Salt Lake UT 84111 US (WORK)</p></div>"
      },
      "extension" : [{
        "url" : "http://hl7.org/fhir/us/vrdr/StructureDefinition/practitioner-role",
        "valueCode" : "Certifier"
      }],
      "identifier" : [{
        "system" : "http://hl7.org/fhir/sid/us-npi",
        "value" : "161632-1999"
      }],
      "name" : [{
        "use" : "official",
        "family" : "Harrison",
        "given" : ["William",
        "Henry"]
      }],
      "address" : [{
        "use" : "work",
        "line" : ["123 Fake St",
        "apt # 123"],
        "city" : "Salt Lake",
        "state" : "UT",
        "postalCode" : "84111",
        "country" : "US"
      }]
    }
  },
  {
    "fullUrl" : "http://www.example.org/fhir/Practitioner/PractitionerUT-Pronouncer",
    "resource" : {
      "resourceType" : "Practitioner",
      "id" : "PractitionerUT-Pronouncer",
      "meta" : {
        "profile" : ["http://hl7.org/fhir/us/core/StructureDefinition/us-core-practitioner"]
      },
      "text" : {
        "status" : "generated",
        "div" : "<div xmlns=\"http://www.w3.org/1999/xhtml\"><p><b>Generated Narrative: Practitioner</b><a name=\"PractitionerUT-Pronouncer\"> </a></p><div style=\"display: inline-block; background-color: #d9e0e7; padding: 6px; margin: 4px; border: 1px solid #8da1b4; border-radius: 5px; line-height: 60%\"><p style=\"margin-bottom: 0px\">Resource Practitioner &quot;PractitionerUT-Pronouncer&quot; </p><p style=\"margin-bottom: 0px\">Profile: <a href=\"http://hl7.org/fhir/us/core/STU5.0.1/StructureDefinition-us-core-practitioner.html\">US Core Practitioner Profile</a></p></div><p><b>identifier</b>: id:\u00a0&lt;a href=&quot;http://terminology.hl7.org/5.0.0/NamingSystem-npi.html&quot;&gt;NPI&lt;/a&gt;#161632-2000</p><p><b>name</b>: Marcus Edwin Welby (OFFICIAL)</p><p><b>address</b>: 123 Unreal St apt # 123 Ogden UT 84067 US (WORK)</p></div>"
      },
      "identifier" : [{
        "system" : "http://hl7.org/fhir/sid/us-npi",
        "value" : "161632-2000"
      }],
      "name" : [{
        "use" : "official",
        "family" : "Welby",
        "given" : ["Marcus",
        "Edwin"]
      }],
      "address" : [{
        "use" : "work",
        "line" : ["123 Unreal St",
        "apt # 123"],
        "city" : "Ogden",
        "state" : "UT",
        "postalCode" : "84067",
        "country" : "US"
      }]
    }
  },
  {
    "fullUrl" : "http://www.example.org/fhir/RelatedPerson/MotherUT-Example1",
    "resource" : {
      "resourceType" : "RelatedPerson",
      "id" : "MotherUT-Example1",
      "meta" : {
        "profile" : ["http://hl7.org/fhir/us/vrdr/StructureDefinition/vrdr-decedent-mother"]
      },
      "text" : {
        "status" : "generated",
        "div" : "<div xmlns=\"http://www.w3.org/1999/xhtml\"><p><b>Generated Narrative: RelatedPerson</b><a name=\"MotherUT-Example1\"> </a></p><div style=\"display: inline-block; background-color: #d9e0e7; padding: 6px; margin: 4px; border: 1px solid #8da1b4; border-radius: 5px; line-height: 60%\"><p style=\"margin-bottom: 0px\">Resource RelatedPerson &quot;MotherUT-Example1&quot; </p><p style=\"margin-bottom: 0px\">Profile: <a href=\"StructureDefinition-vrdr-decedent-mother.html\">Decedent Mother</a></p></div><p><b>active</b>: true</p><p><b>patient</b>: <a href=\"#Patient_DecedentUT-Example1\">See above (Patient/DecedentUT-Example1)</a></p><p><b>relationship</b>: mother <span style=\"background: LightGoldenRodYellow; margin: 4px; border: 1px solid khaki\"> (<a href=\"http://terminology.hl7.org/6.0.2/CodeSystem-v3-RoleCode.html\">RoleCode</a>#MTH)</span></p><p><b>name</b>: * * * (OFFICIAL)</p></div>"
      },
      "active" : true,
      "patient" : {
        "reference" : "Patient/DecedentUT-Example1"
      },
      "relationship" : [{
        "coding" : [{
          "system" : "http://terminology.hl7.org/CodeSystem/v3-RoleCode",
          "code" : "MTH",
          "display" : "mother"
        }]
      }],
      "name" : [{
        "use" : "official",
        "family" : "*",
        "given" : ["*",
        "*"]
      }]
    }
  },
  {
    "fullUrl" : "http://www.example.org/fhir/RelatedPerson/FatherUT-Example1",
    "resource" : {
      "resourceType" : "RelatedPerson",
      "id" : "FatherUT-Example1",
      "meta" : {
        "profile" : ["http://hl7.org/fhir/us/vrdr/StructureDefinition/vrdr-decedent-father"]
      },
      "text" : {
        "status" : "generated",
        "div" : "<div xmlns=\"http://www.w3.org/1999/xhtml\"><p><b>Generated Narrative: RelatedPerson</b><a name=\"FatherUT-Example1\"> </a></p><div style=\"display: inline-block; background-color: #d9e0e7; padding: 6px; margin: 4px; border: 1px solid #8da1b4; border-radius: 5px; line-height: 60%\"><p style=\"margin-bottom: 0px\">Resource RelatedPerson &quot;FatherUT-Example1&quot; </p><p style=\"margin-bottom: 0px\">Profile: <a href=\"StructureDefinition-vrdr-decedent-father.html\">Decedent Father</a></p></div><p><b>active</b>: true</p><p><b>patient</b>: <a href=\"#Patient_DecedentUT-Example1\">See above (Patient/DecedentUT-Example1)</a></p><p><b>relationship</b>: father <span style=\"background: LightGoldenRodYellow; margin: 4px; border: 1px solid khaki\"> (<a href=\"http://terminology.hl7.org/6.0.2/CodeSystem-v3-RoleCode.html\">RoleCode</a>#FTH)</span></p><p><b>name</b>: * * Lineberry (OFFICIAL)</p></div>"
      },
      "active" : true,
      "patient" : {
        "reference" : "Patient/DecedentUT-Example1"
      },
      "relationship" : [{
        "coding" : [{
          "system" : "http://terminology.hl7.org/CodeSystem/v3-RoleCode",
          "code" : "FTH",
          "display" : "father"
        }]
      }],
      "name" : [{
        "use" : "official",
        "family" : "Lineberry",
        "given" : ["*",
        "*"]
      }]
    }
  },
  {
    "fullUrl" : "http://www.example.org/fhir/Observation/InputRaceAndEthnicityUT-Example1",
    "resource" : {
      "resourceType" : "Observation",
      "id" : "InputRaceAndEthnicityUT-Example1",
      "meta" : {
        "profile" : ["http://hl7.org/fhir/us/vr-common-library/StructureDefinition/input-race-and-ethnicity-vr"]
      },
      "text" : {
        "status" : "generated",
        "div" : "<div xmlns=\"http://www.w3.org/1999/xhtml\"><p><b>Generated Narrative: Observation</b><a name=\"InputRaceAndEthnicityUT-Example1\"> </a></p><div style=\"display: inline-block; background-color: #d9e0e7; padding: 6px; margin: 4px; border: 1px solid #8da1b4; border-radius: 5px; line-height: 60%\"><p style=\"margin-bottom: 0px\">Resource Observation &quot;InputRaceAndEthnicityUT-Example1&quot; </p><p style=\"margin-bottom: 0px\">Profile: <a href=\"https://build.fhir.org/ig/HL7/vr-common-library//StructureDefinition-input-race-and-ethnicity-vr.html\">Observation - Input Race and Ethnicity Vital Records</a></p></div><p><b>status</b>: final</p><p><b>code</b>: Input Race and Ethnicity <span style=\"background: LightGoldenRodYellow; margin: 4px; border: 1px solid khaki\"> (<a href=\"https://build.fhir.org/ig/HL7/vr-common-library//CodeSystem-CodeSystem-local-observation-codes-vr.html\">Local Observation Codes Vital Records</a>#inputraceandethnicity)</span></p><p><b>subject</b>: <a href=\"#Patient_DecedentUT-Example1\">See above (Patient/DecedentUT-Example1)</a></p><blockquote><p><b>component</b></p><p><b>code</b>: White <span style=\"background: LightGoldenRodYellow; margin: 4px; border: 1px solid khaki\"> (<a href=\"https://build.fhir.org/ig/HL7/vr-common-library//CodeSystem-codesystem-vr-component.html\">Local Component Codes</a>#White)</span></p><p><b>value</b>: true</p></blockquote><blockquote><p><b>component</b></p><p><b>code</b>: Black Or African American <span style=\"background: LightGoldenRodYellow; margin: 4px; border: 1px solid khaki\"> (<a href=\"https://build.fhir.org/ig/HL7/vr-common-library//CodeSystem-codesystem-vr-component.html\">Local Component Codes</a>#BlackOrAfricanAmerican)</span></p><p><b>value</b>: false</p></blockquote><blockquote><p><b>component</b></p><p><b>code</b>: American Indian Or Alaska Native <span style=\"background: LightGoldenRodYellow; margin: 4px; border: 1px solid khaki\"> (<a href=\"https://build.fhir.org/ig/HL7/vr-common-library//CodeSystem-codesystem-vr-component.html\">Local Component Codes</a>#AmericanIndianOrAlaskanNative)</span></p><p><b>value</b>: true</p></blockquote><blockquote><p><b>component</b></p><p><b>code</b>: First American Indian Or Alaska Native Literal <span style=\"background: LightGoldenRodYellow; margin: 4px; border: 1px solid khaki\"> (<a href=\"https://build.fhir.org/ig/HL7/vr-common-library//CodeSystem-codesystem-vr-component.html\">Local Component Codes</a>#FirstAmericanIndianOrAlaskanNativeLiteral)</span></p><p><b>value</b>: Cheyenne</p></blockquote><blockquote><p><b>component</b></p><p><b>code</b>: Chinese <span style=\"background: LightGoldenRodYellow; margin: 4px; border: 1px solid khaki\"> (<a href=\"https://build.fhir.org/ig/HL7/vr-common-library//CodeSystem-codesystem-vr-component.html\">Local Component Codes</a>#Chinese)</span></p><p><b>value</b>: false</p></blockquote><blockquote><p><b>component</b></p><p><b>code</b>: Japanese <span style=\"background: LightGoldenRodYellow; margin: 4px; border: 1px solid khaki\"> (<a href=\"https://build.fhir.org/ig/HL7/vr-common-library//CodeSystem-codesystem-vr-component.html\">Local Component Codes</a>#Japanese)</span></p><p><b>value</b>: false</p></blockquote><blockquote><p><b>component</b></p><p><b>code</b>: Native Hawaiian <span style=\"background: LightGoldenRodYellow; margin: 4px; border: 1px solid khaki\"> (<a href=\"https://build.fhir.org/ig/HL7/vr-common-library//CodeSystem-codesystem-vr-component.html\">Local Component Codes</a>#NativeHawaiian)</span></p><p><b>value</b>: false</p></blockquote><blockquote><p><b>component</b></p><p><b>code</b>: Filipino <span style=\"background: LightGoldenRodYellow; margin: 4px; border: 1px solid khaki\"> (<a href=\"https://build.fhir.org/ig/HL7/vr-common-library//CodeSystem-codesystem-vr-component.html\">Local Component Codes</a>#Filipino)</span></p><p><b>value</b>: false</p></blockquote><blockquote><p><b>component</b></p><p><b>code</b>: Other Asian <span style=\"background: LightGoldenRodYellow; margin: 4px; border: 1px solid khaki\"> (<a href=\"https://build.fhir.org/ig/HL7/vr-common-library//CodeSystem-codesystem-vr-component.html\">Local Component Codes</a>#OtherAsian)</span></p><p><b>value</b>: false</p></blockquote><blockquote><p><b>component</b></p><p><b>code</b>: Asian Indian <span style=\"background: LightGoldenRodYellow; margin: 4px; border: 1px solid khaki\"> (<a href=\"https://build.fhir.org/ig/HL7/vr-common-library//CodeSystem-codesystem-vr-component.html\">Local Component Codes</a>#AsianIndian)</span></p><p><b>value</b>: false</p></blockquote><blockquote><p><b>component</b></p><p><b>code</b>: Korean <span style=\"background: LightGoldenRodYellow; margin: 4px; border: 1px solid khaki\"> (<a href=\"https://build.fhir.org/ig/HL7/vr-common-library//CodeSystem-codesystem-vr-component.html\">Local Component Codes</a>#Korean)</span></p><p><b>value</b>: false</p></blockquote><blockquote><p><b>component</b></p><p><b>code</b>: Samoan <span style=\"background: LightGoldenRodYellow; margin: 4px; border: 1px solid khaki\"> (<a href=\"https://build.fhir.org/ig/HL7/vr-common-library//CodeSystem-codesystem-vr-component.html\">Local Component Codes</a>#Samoan)</span></p><p><b>value</b>: false</p></blockquote><blockquote><p><b>component</b></p><p><b>code</b>: Vietnamese <span style=\"background: LightGoldenRodYellow; margin: 4px; border: 1px solid khaki\"> (<a href=\"https://build.fhir.org/ig/HL7/vr-common-library//CodeSystem-codesystem-vr-component.html\">Local Component Codes</a>#Vietnamese)</span></p><p><b>value</b>: false</p></blockquote><blockquote><p><b>component</b></p><p><b>code</b>: Guamanian Or Chamorro <span style=\"background: LightGoldenRodYellow; margin: 4px; border: 1px solid khaki\"> (<a href=\"https://build.fhir.org/ig/HL7/vr-common-library//CodeSystem-codesystem-vr-component.html\">Local Component Codes</a>#GuamanianOrChamorro)</span></p><p><b>value</b>: false</p></blockquote><blockquote><p><b>component</b></p><p><b>code</b>: Other Pacific Islander <span style=\"background: LightGoldenRodYellow; margin: 4px; border: 1px solid khaki\"> (<a href=\"https://build.fhir.org/ig/HL7/vr-common-library//CodeSystem-codesystem-vr-component.html\">Local Component Codes</a>#OtherPacificIslander)</span></p><p><b>value</b>: false</p></blockquote><blockquote><p><b>component</b></p><p><b>code</b>: Other Race <span style=\"background: LightGoldenRodYellow; margin: 4px; border: 1px solid khaki\"> (<a href=\"https://build.fhir.org/ig/HL7/vr-common-library//CodeSystem-codesystem-vr-component.html\">Local Component Codes</a>#OtherRace)</span></p><p><b>value</b>: false</p></blockquote><blockquote><p><b>component</b></p><p><b>code</b>: Hispanic Mexican <span style=\"background: LightGoldenRodYellow; margin: 4px; border: 1px solid khaki\"> (<a href=\"https://build.fhir.org/ig/HL7/vr-common-library//CodeSystem-codesystem-vr-component.html\">Local Component Codes</a>#HispanicMexican)</span></p><p><b>value</b>: No <span style=\"background: LightGoldenRodYellow; margin: 4px; border: 1px solid khaki\"> (<a href=\"http://hl7.org/fhir/R4/v2/0136/index.html\">v2 Y/N Indicator</a>#N)</span></p></blockquote><blockquote><p><b>component</b></p><p><b>code</b>: Hispanic Cuban <span style=\"background: LightGoldenRodYellow; margin: 4px; border: 1px solid khaki\"> (<a href=\"https://build.fhir.org/ig/HL7/vr-common-library//CodeSystem-codesystem-vr-component.html\">Local Component Codes</a>#HispanicCuban)</span></p><p><b>value</b>: No <span style=\"background: LightGoldenRodYellow; margin: 4px; border: 1px solid khaki\"> (<a href=\"http://hl7.org/fhir/R4/v2/0136/index.html\">v2 Y/N Indicator</a>#N)</span></p></blockquote><blockquote><p><b>component</b></p><p><b>code</b>: Hispanic Puerto Rican <span style=\"background: LightGoldenRodYellow; margin: 4px; border: 1px solid khaki\"> (<a href=\"https://build.fhir.org/ig/HL7/vr-common-library//CodeSystem-codesystem-vr-component.html\">Local Component Codes</a>#HispanicPuertoRican)</span></p><p><b>value</b>: No <span style=\"background: LightGoldenRodYellow; margin: 4px; border: 1px solid khaki\"> (<a href=\"http://hl7.org/fhir/R4/v2/0136/index.html\">v2 Y/N Indicator</a>#N)</span></p></blockquote><blockquote><p><b>component</b></p><p><b>code</b>: Hispanic Other <span style=\"background: LightGoldenRodYellow; margin: 4px; border: 1px solid khaki\"> (<a href=\"https://build.fhir.org/ig/HL7/vr-common-library//CodeSystem-codesystem-vr-component.html\">Local Component Codes</a>#HispanicOther)</span></p><p><b>value</b>: No <span style=\"background: LightGoldenRodYellow; margin: 4px; border: 1px solid khaki\"> (<a href=\"http://hl7.org/fhir/R4/v2/0136/index.html\">v2 Y/N Indicator</a>#N)</span></p></blockquote></div>"
      },
      "status" : "final",
      "code" : {
        "coding" : [{
          "system" : "http://hl7.org/fhir/us/vr-common-library/CodeSystem/CodeSystem-local-observation-codes-vr",
          "code" : "inputraceandethnicity"
        }]
      },
      "subject" : {
        "reference" : "Patient/DecedentUT-Example1"
      },
      "component" : [{
        "code" : {
          "coding" : [{
            "system" : "http://hl7.org/fhir/us/vr-common-library/CodeSystem/codesystem-vr-component",
            "code" : "White"
          }]
        },
        "valueBoolean" : true
      },
      {
        "code" : {
          "coding" : [{
            "system" : "http://hl7.org/fhir/us/vr-common-library/CodeSystem/codesystem-vr-component",
            "code" : "BlackOrAfricanAmerican"
          }]
        },
        "valueBoolean" : false
      },
      {
        "code" : {
          "coding" : [{
            "system" : "http://hl7.org/fhir/us/vr-common-library/CodeSystem/codesystem-vr-component",
            "code" : "AmericanIndianOrAlaskanNative"
          }]
        },
        "valueBoolean" : true
      },
      {
        "code" : {
          "coding" : [{
            "system" : "http://hl7.org/fhir/us/vr-common-library/CodeSystem/codesystem-vr-component",
            "code" : "FirstAmericanIndianOrAlaskanNativeLiteral"
          }]
        },
        "valueString" : "Cheyenne"
      },
      {
        "code" : {
          "coding" : [{
            "system" : "http://hl7.org/fhir/us/vr-common-library/CodeSystem/codesystem-vr-component",
            "code" : "Chinese"
          }]
        },
        "valueBoolean" : false
      },
      {
        "code" : {
          "coding" : [{
            "system" : "http://hl7.org/fhir/us/vr-common-library/CodeSystem/codesystem-vr-component",
            "code" : "Japanese"
          }]
        },
        "valueBoolean" : false
      },
      {
        "code" : {
          "coding" : [{
            "system" : "http://hl7.org/fhir/us/vr-common-library/CodeSystem/codesystem-vr-component",
            "code" : "NativeHawaiian"
          }]
        },
        "valueBoolean" : false
      },
      {
        "code" : {
          "coding" : [{
            "system" : "http://hl7.org/fhir/us/vr-common-library/CodeSystem/codesystem-vr-component",
            "code" : "Filipino"
          }]
        },
        "valueBoolean" : false
      },
      {
        "code" : {
          "coding" : [{
            "system" : "http://hl7.org/fhir/us/vr-common-library/CodeSystem/codesystem-vr-component",
            "code" : "OtherAsian"
          }]
        },
        "valueBoolean" : false
      },
      {
        "code" : {
          "coding" : [{
            "system" : "http://hl7.org/fhir/us/vr-common-library/CodeSystem/codesystem-vr-component",
            "code" : "AsianIndian"
          }]
        },
        "valueBoolean" : false
      },
      {
        "code" : {
          "coding" : [{
            "system" : "http://hl7.org/fhir/us/vr-common-library/CodeSystem/codesystem-vr-component",
            "code" : "Korean"
          }]
        },
        "valueBoolean" : false
      },
      {
        "code" : {
          "coding" : [{
            "system" : "http://hl7.org/fhir/us/vr-common-library/CodeSystem/codesystem-vr-component",
            "code" : "Samoan"
          }]
        },
        "valueBoolean" : false
      },
      {
        "code" : {
          "coding" : [{
            "system" : "http://hl7.org/fhir/us/vr-common-library/CodeSystem/codesystem-vr-component",
            "code" : "Vietnamese"
          }]
        },
        "valueBoolean" : false
      },
      {
        "code" : {
          "coding" : [{
            "system" : "http://hl7.org/fhir/us/vr-common-library/CodeSystem/codesystem-vr-component",
            "code" : "GuamanianOrChamorro"
          }]
        },
        "valueBoolean" : false
      },
      {
        "code" : {
          "coding" : [{
            "system" : "http://hl7.org/fhir/us/vr-common-library/CodeSystem/codesystem-vr-component",
            "code" : "OtherPacificIslander"
          }]
        },
        "valueBoolean" : false
      },
      {
        "code" : {
          "coding" : [{
            "system" : "http://hl7.org/fhir/us/vr-common-library/CodeSystem/codesystem-vr-component",
            "code" : "OtherRace"
          }]
        },
        "valueBoolean" : false
      },
      {
        "code" : {
          "coding" : [{
            "system" : "http://hl7.org/fhir/us/vr-common-library/CodeSystem/codesystem-vr-component",
            "code" : "HispanicMexican"
          }]
        },
        "valueCodeableConcept" : {
          "coding" : [{
            "system" : "http://terminology.hl7.org/CodeSystem/v2-0136",
            "code" : "N",
            "display" : "No"
          }]
        }
      },
      {
        "code" : {
          "coding" : [{
            "system" : "http://hl7.org/fhir/us/vr-common-library/CodeSystem/codesystem-vr-component",
            "code" : "HispanicCuban"
          }]
        },
        "valueCodeableConcept" : {
          "coding" : [{
            "system" : "http://terminology.hl7.org/CodeSystem/v2-0136",
            "code" : "N",
            "display" : "No"
          }]
        }
      },
      {
        "code" : {
          "coding" : [{
            "system" : "http://hl7.org/fhir/us/vr-common-library/CodeSystem/codesystem-vr-component",
            "code" : "HispanicPuertoRican"
          }]
        },
        "valueCodeableConcept" : {
          "coding" : [{
            "system" : "http://terminology.hl7.org/CodeSystem/v2-0136",
            "code" : "N",
            "display" : "No"
          }]
        }
      },
      {
        "code" : {
          "coding" : [{
            "system" : "http://hl7.org/fhir/us/vr-common-library/CodeSystem/codesystem-vr-component",
            "code" : "HispanicOther"
          }]
        },
        "valueCodeableConcept" : {
          "coding" : [{
            "system" : "http://terminology.hl7.org/CodeSystem/v2-0136",
            "code" : "N",
            "display" : "No"
          }]
        }
      }]
    }
  },
  {
    "fullUrl" : "http://www.example.org/fhir/Observation/BirthRecordIdentifierUT-Example1",
    "resource" : {
      "resourceType" : "Observation",
      "id" : "BirthRecordIdentifierUT-Example1",
      "meta" : {
        "profile" : ["http://hl7.org/fhir/us/vrdr/StructureDefinition/vrdr-birth-record-identifier"]
      },
      "text" : {
        "status" : "generated",
        "div" : "<div xmlns=\"http://www.w3.org/1999/xhtml\"><p><b>Generated Narrative: Observation</b><a name=\"BirthRecordIdentifierUT-Example1\"> </a></p><div style=\"display: inline-block; background-color: #d9e0e7; padding: 6px; margin: 4px; border: 1px solid #8da1b4; border-radius: 5px; line-height: 60%\"><p style=\"margin-bottom: 0px\">Resource Observation &quot;BirthRecordIdentifierUT-Example1&quot; </p><p style=\"margin-bottom: 0px\">Profile: <a href=\"StructureDefinition-vrdr-birth-record-identifier.html\">Birth Record Identifier Infant</a></p></div><p><b>status</b>: final</p><p><b>code</b>: Birth Record Identifier of Child <span style=\"background: LightGoldenRodYellow; margin: 4px; border: 1px solid khaki\"> (<a href=\"CodeSystem-vrdr-observations-cs.html\">Local Observation Codes</a>#childbirthrecordidentifier)</span></p><p><b>subject</b>: <a href=\"#Patient_DecedentUT-Example1\">See above (Patient/DecedentUT-Example1)</a></p><p><b>value</b>: 001023</p><blockquote><p><b>component</b></p><p><b>code</b>: Birthplace <span style=\"background: LightGoldenRodYellow; margin: 4px; border: 1px solid khaki\"> (<a href=\"https://loinc.org/\">LOINC</a>#21842-0)</span></p><p><b>value</b>: CO</p></blockquote><blockquote><p><b>component</b></p><p><b>code</b>: Birth year <span style=\"background: LightGoldenRodYellow; margin: 4px; border: 1px solid khaki\"> (<a href=\"https://loinc.org/\">LOINC</a>#80904-6)</span></p><p><b>value</b>: 2021</p></blockquote></div>"
      },
      "status" : "final",
      "code" : {
        "coding" : [{
          "system" : "http://hl7.org/fhir/us/vrdr/CodeSystem/vrdr-observations-cs",
          "code" : "childbirthrecordidentifier"
        }]
      },
      "subject" : {
        "reference" : "Patient/DecedentUT-Example1"
      },
      "valueString" : "001023",
      "component" : [{
        "code" : {
          "coding" : [{
            "system" : "http://loinc.org",
            "code" : "21842-0"
          }]
        },
        "valueString" : "CO"
      },
      {
        "code" : {
          "coding" : [{
            "system" : "http://loinc.org",
            "code" : "80904-6"
          }]
        },
        "valueDateTime" : "2021"
      }]
    }
  },
  {
    "fullUrl" : "http://www.example.org/fhir/Observation/EducationUT-Example1",
    "resource" : {
      "resourceType" : "Observation",
      "id" : "EducationUT-Example1",
      "meta" : {
        "profile" : ["http://hl7.org/fhir/us/vr-common-library/StructureDefinition/Observation-education-level-vr"]
      },
      "text" : {
        "status" : "generated",
        "div" : "<div xmlns=\"http://www.w3.org/1999/xhtml\"><p><b>Generated Narrative: Observation</b><a name=\"EducationUT-Example1\"> </a></p><div style=\"display: inline-block; background-color: #d9e0e7; padding: 6px; margin: 4px; border: 1px solid #8da1b4; border-radius: 5px; line-height: 60%\"><p style=\"margin-bottom: 0px\">Resource Observation &quot;EducationUT-Example1&quot; </p><p style=\"margin-bottom: 0px\">Profile: <a href=\"https://build.fhir.org/ig/HL7/vr-common-library//StructureDefinition-Observation-education-level-vr.html\">Observation - Education Level Vital Records</a></p></div><p><b>status</b>: final</p><p><b>code</b>: Highest level of education [US Standard Certificate of Death] <span style=\"background: LightGoldenRodYellow; margin: 4px; border: 1px solid khaki\"> (<a href=\"https://loinc.org/\">LOINC</a>#80913-7)</span></p><p><b>subject</b>: <a href=\"#Patient_DecedentUT-Example1\">See above (Patient/DecedentUT-Example1)</a></p><p><b>value</b>: Elementary School <span style=\"background: LightGoldenRodYellow; margin: 4px; border: 1px solid khaki\"> (<a href=\"http://terminology.hl7.org/6.0.2/CodeSystem-v3-EducationLevel.html\">Education Level</a>#ELEM)</span></p></div>"
      },
      "status" : "final",
      "code" : {
        "coding" : [{
          "system" : "http://loinc.org",
          "code" : "80913-7",
          "display" : "Highest level of education [US Standard Certificate of Death]"
        }]
      },
      "subject" : {
        "reference" : "Patient/DecedentUT-Example1"
      },
      "valueCodeableConcept" : {
        "extension" : [{
          "url" : "http://hl7.org/fhir/us/vr-common-library/StructureDefinition/BypassEditFlag",
          "valueCodeableConcept" : {
            "coding" : [{
              "system" : "http://hl7.org/fhir/us/vr-common-library/CodeSystem/CodeSystem-vr-edit-flags",
              "code" : "0",
              "display" : "Edit Passed"
            }]
          }
        }],
        "coding" : [{
          "system" : "http://terminology.hl7.org/CodeSystem/v3-EducationLevel",
          "code" : "ELEM",
          "display" : "Elementary School"
        }]
      }
    }
  },
  {
    "fullUrl" : "http://www.example.org/fhir/Observation/PregnancyUT-Example1",
    "resource" : {
      "resourceType" : "Observation",
      "id" : "PregnancyUT-Example1",
      "meta" : {
        "profile" : ["http://hl7.org/fhir/us/vrdr/StructureDefinition/vrdr-decedent-pregnancy-status"]
      },
      "text" : {
        "status" : "generated",
        "div" : "<div xmlns=\"http://www.w3.org/1999/xhtml\"><p><b>Generated Narrative: Observation</b><a name=\"PregnancyUT-Example1\"> </a></p><div style=\"display: inline-block; background-color: #d9e0e7; padding: 6px; margin: 4px; border: 1px solid #8da1b4; border-radius: 5px; line-height: 60%\"><p style=\"margin-bottom: 0px\">Resource Observation &quot;PregnancyUT-Example1&quot; </p><p style=\"margin-bottom: 0px\">Profile: <a href=\"StructureDefinition-vrdr-decedent-pregnancy-status.html\">Decedent Pregnancy</a></p></div><p><b>status</b>: final</p><p><b>code</b>: Timing of recent pregnancy in relation to death <span style=\"background: LightGoldenRodYellow; margin: 4px; border: 1px solid khaki\"> (<a href=\"https://loinc.org/\">LOINC</a>#69442-2)</span></p><p><b>subject</b>: <a href=\"#Patient_DecedentUT-Example1\">See above (Patient/DecedentUT-Example1)</a></p><p><b>value</b>: Not applicable <span style=\"background: LightGoldenRodYellow; margin: 4px; border: 1px solid khaki\"> (<a href=\"http://terminology.hl7.org/6.0.2/CodeSystem-v3-NullFlavor.html\">NullFlavor</a>#NA)</span></p></div>"
      },
      "status" : "final",
      "code" : {
        "coding" : [{
          "system" : "http://loinc.org",
          "code" : "69442-2"
        }]
      },
      "subject" : {
        "reference" : "Patient/DecedentUT-Example1"
      },
      "valueCodeableConcept" : {
        "extension" : [{
          "url" : "http://hl7.org/fhir/us/vr-common-library/StructureDefinition/BypassEditFlag",
          "valueCodeableConcept" : {
            "coding" : [{
              "system" : "http://hl7.org/fhir/us/vr-common-library/CodeSystem/CodeSystem-vr-edit-flags",
              "code" : "0",
              "display" : "Edit Passed"
            }]
          }
        }],
        "coding" : [{
          "system" : "http://terminology.hl7.org/CodeSystem/v3-NullFlavor",
          "code" : "NA",
          "display" : "Not applicable"
        }]
      }
    }
  },
  {
    "fullUrl" : "http://www.example.org/fhir/Observation/AutopsyPerformedIndicatorUT-Example1",
    "resource" : {
      "resourceType" : "Observation",
      "id" : "AutopsyPerformedIndicatorUT-Example1",
      "meta" : {
        "profile" : ["http://hl7.org/fhir/us/vrdr/StructureDefinition/vrdr-autopsy-performed-indicator"]
      },
      "text" : {
        "status" : "generated",
        "div" : "<div xmlns=\"http://www.w3.org/1999/xhtml\"><p><b>Generated Narrative: Observation</b><a name=\"AutopsyPerformedIndicatorUT-Example1\"> </a></p><div style=\"display: inline-block; background-color: #d9e0e7; padding: 6px; margin: 4px; border: 1px solid #8da1b4; border-radius: 5px; line-height: 60%\"><p style=\"margin-bottom: 0px\">Resource Observation &quot;AutopsyPerformedIndicatorUT-Example1&quot; </p><p style=\"margin-bottom: 0px\">Profile: <a href=\"StructureDefinition-vrdr-autopsy-performed-indicator.html\">Autopsy Performed Indicator</a></p></div><p><b>status</b>: final</p><p><b>code</b>: Autopsy was performed <span style=\"background: LightGoldenRodYellow; margin: 4px; border: 1px solid khaki\"> (<a href=\"https://loinc.org/\">LOINC</a>#85699-7)</span></p><p><b>subject</b>: <a href=\"#Patient_DecedentUT-Example1\">See above (Patient/DecedentUT-Example1)</a></p><p><b>value</b>: Unknown <span style=\"background: LightGoldenRodYellow; margin: 4px; border: 1px solid khaki\"> (<a href=\"http://terminology.hl7.org/6.0.2/CodeSystem-v3-NullFlavor.html\">NullFlavor</a>#UNK)</span></p><h3>Components</h3><table class=\"grid\"><tr><td style=\"display: none\">-</td><td><b>Code</b></td><td><b>Value[x]</b></td></tr><tr><td style=\"display: none\">*</td><td>Autopsy results available <span style=\"background: LightGoldenRodYellow; margin: 4px; border: 1px solid khaki\"> (<a href=\"https://loinc.org/\">LOINC</a>#69436-4)</span></td><td>Unknown <span style=\"background: LightGoldenRodYellow; margin: 4px; border: 1px solid khaki\"> (<a href=\"http://terminology.hl7.org/6.0.2/CodeSystem-v3-NullFlavor.html\">NullFlavor</a>#UNK)</span></td></tr></table></div>"
      },
      "status" : "final",
      "code" : {
        "coding" : [{
          "system" : "http://loinc.org",
          "code" : "85699-7"
        }]
      },
      "subject" : {
        "reference" : "Patient/DecedentUT-Example1"
      },
      "valueCodeableConcept" : {
        "coding" : [{
          "system" : "http://terminology.hl7.org/CodeSystem/v3-NullFlavor",
          "code" : "UNK",
          "display" : "Unknown"
        }]
      },
      "component" : [{
        "code" : {
          "coding" : [{
            "system" : "http://loinc.org",
            "code" : "69436-4"
          }]
        },
        "valueCodeableConcept" : {
          "coding" : [{
            "system" : "http://terminology.hl7.org/CodeSystem/v3-NullFlavor",
            "code" : "UNK",
            "display" : "Unknown"
          }]
        }
      }]
    }
  },
  {
    "fullUrl" : "http://www.example.org/fhir/Observation/CauseOfDeathPart1UT-Example1",
    "resource" : {
      "resourceType" : "Observation",
      "id" : "CauseOfDeathPart1UT-Example1",
      "meta" : {
        "profile" : ["http://hl7.org/fhir/us/vrdr/StructureDefinition/vrdr-cause-of-death-part1"]
      },
      "text" : {
        "status" : "generated",
        "div" : "<div xmlns=\"http://www.w3.org/1999/xhtml\"><p><b>Generated Narrative: Observation</b><a name=\"CauseOfDeathPart1UT-Example1\"> </a></p><div style=\"display: inline-block; background-color: #d9e0e7; padding: 6px; margin: 4px; border: 1px solid #8da1b4; border-radius: 5px; line-height: 60%\"><p style=\"margin-bottom: 0px\">Resource Observation &quot;CauseOfDeathPart1UT-Example1&quot; </p><p style=\"margin-bottom: 0px\">Profile: <a href=\"StructureDefinition-vrdr-cause-of-death-part1.html\">Cause Of Death Part 1</a></p></div><p><b>status</b>: preliminary</p><p><b>code</b>: Cause of death [US Standard Certificate of Death] <span style=\"background: LightGoldenRodYellow; margin: 4px; border: 1px solid khaki\"> (<a href=\"https://loinc.org/\">LOINC</a>#69453-9)</span></p><p><b>subject</b>: <a href=\"#Patient_DecedentUT-Example1\">See above (Patient/DecedentUT-Example1)</a></p><p><b>performer</b>: <a href=\"#Practitioner_PractitionerUT-Certifier\">See above (Practitioner/PractitionerUT-Certifier)</a></p><p><b>value</b>: Pending <span style=\"background: LightGoldenRodYellow; margin: 4px; border: 1px solid khaki\"> ()</span></p><blockquote><p><b>component</b></p><p><b>code</b>: line number <span style=\"background: LightGoldenRodYellow; margin: 4px; border: 1px solid khaki\"> (<a href=\"CodeSystem-vrdr-component-cs.html\">Local Component Codes</a>#lineNumber)</span></p><p><b>value</b>: 1</p></blockquote><blockquote><p><b>component</b></p><p><b>code</b>: Disease onset to death interval <span style=\"background: LightGoldenRodYellow; margin: 4px; border: 1px solid khaki\"> (<a href=\"https://loinc.org/\">LOINC</a>#69440-6)</span></p><p><b>value</b>: Pending</p></blockquote></div>"
      },
      "status" : "preliminary",
      "code" : {
        "coding" : [{
          "system" : "http://loinc.org",
          "code" : "69453-9"
        }]
      },
      "subject" : {
        "reference" : "Patient/DecedentUT-Example1"
      },
      "performer" : [{
        "reference" : "Practitioner/PractitionerUT-Certifier"
      }],
      "valueCodeableConcept" : {
        "text" : "Pending"
      },
      "component" : [{
        "code" : {
          "coding" : [{
            "system" : "http://hl7.org/fhir/us/vrdr/CodeSystem/vrdr-component-cs",
            "code" : "lineNumber"
          }]
        },
        "valueInteger" : 1
      },
      {
        "code" : {
          "coding" : [{
            "system" : "http://loinc.org",
            "code" : "69440-6"
          }]
        },
        "valueString" : "Pending"
      }]
    }
  },
  {
    "fullUrl" : "http://www.example.org/fhir/Observation/DeathDateUT-Example1",
    "resource" : {
      "resourceType" : "Observation",
      "id" : "DeathDateUT-Example1",
      "meta" : {
        "profile" : ["http://hl7.org/fhir/us/vrdr/StructureDefinition/vrdr-death-date"]
      },
      "text" : {
        "status" : "generated",
        "div" : "<div xmlns=\"http://www.w3.org/1999/xhtml\"><p><b>Generated Narrative: Observation</b><a name=\"DeathDateUT-Example1\"> </a></p><div style=\"display: inline-block; background-color: #d9e0e7; padding: 6px; margin: 4px; border: 1px solid #8da1b4; border-radius: 5px; line-height: 60%\"><p style=\"margin-bottom: 0px\">Resource Observation &quot;DeathDateUT-Example1&quot; </p><p style=\"margin-bottom: 0px\">Profile: <a href=\"StructureDefinition-vrdr-death-date.html\">Death Date</a></p></div><p><b>status</b>: final</p><p><b>code</b>: Date and time of death [TimeStamp] <span style=\"background: LightGoldenRodYellow; margin: 4px; border: 1px solid khaki\"> (<a href=\"https://loinc.org/\">LOINC</a>#81956-5)</span></p><p><b>subject</b>: <a href=\"#Patient_DecedentUT-Example1\">See above (Patient/DecedentUT-Example1)</a></p><p><b>effective</b>: 2022-01-17 20:23:00-0500</p><p><b>performer</b>: <a href=\"#Practitioner_PractitionerUT-Pronouncer\">See above (Practitioner/PractitionerUT-Pronouncer)</a></p><p><b>value</b>: ??</p><h3>Components</h3><table class=\"grid\"><tr><td style=\"display: none\">-</td><td><b>Code</b></td><td><b>Value[x]</b></td></tr><tr><td style=\"display: none\">*</td><td>Location of death <span style=\"background: LightGoldenRodYellow; margin: 4px; border: 1px solid khaki\"> (<a href=\"https://loinc.org/\">LOINC</a>#58332-8)</span></td><td>Death in hospital <span style=\"background: LightGoldenRodYellow; margin: 4px; border: 1px solid khaki\"> (<a href=\"https://browser.ihtsdotools.org/\">SNOMED CT</a>#16983000)</span></td></tr></table></div>"
      },
      "status" : "final",
      "code" : {
        "coding" : [{
          "system" : "http://loinc.org",
          "code" : "81956-5"
        }]
      },
      "subject" : {
        "reference" : "Patient/DecedentUT-Example1"
      },
      "effectiveDateTime" : "2022-01-17T20:23:00-05:00",
      "performer" : [{
        "reference" : "Practitioner/PractitionerUT-Pronouncer"
      }],
      "_valueDateTime" : {
        "extension" : [{
          "extension" : [{
            "url" : "year",
            "valueUnsignedInt" : 2022
          },
          {
            "url" : "month",
            "valueUnsignedInt" : 1
          },
          {
            "url" : "day",
            "valueUnsignedInt" : 17
          },
          {
            "url" : "time",
            "valueTime" : "18:23:00"
          }],
          "url" : "http://hl7.org/fhir/us/vr-common-library/StructureDefinition/Extension-partial-date-time-vr"
        }]
      },
      "component" : [{
        "code" : {
          "coding" : [{
            "system" : "http://loinc.org",
            "code" : "58332-8",
            "display" : "Location of death"
          }]
        },
        "valueCodeableConcept" : {
          "coding" : [{
            "system" : "http://snomed.info/sct",
            "code" : "16983000",
            "display" : "Death in hospital"
          }]
        }
      }]
    }
  },
  {
    "fullUrl" : "http://www.example.org/fhir/Organization/FuneralHomeUT-Example1",
    "resource" : {
      "resourceType" : "Organization",
      "id" : "FuneralHomeUT-Example1",
      "meta" : {
        "profile" : ["http://hl7.org/fhir/us/vrdr/StructureDefinition/vrdr-funeral-home"]
      },
      "text" : {
        "status" : "generated",
        "div" : "<div xmlns=\"http://www.w3.org/1999/xhtml\"><p><b>Generated Narrative: Organization</b><a name=\"FuneralHomeUT-Example1\"> </a></p><div style=\"display: inline-block; background-color: #d9e0e7; padding: 6px; margin: 4px; border: 1px solid #8da1b4; border-radius: 5px; line-height: 60%\"><p style=\"margin-bottom: 0px\">Resource Organization &quot;FuneralHomeUT-Example1&quot; </p><p style=\"margin-bottom: 0px\">Profile: <a href=\"StructureDefinition-vrdr-funeral-home.html\">Funeral Home</a></p></div><p><b>active</b>: true</p><p><b>type</b>: Funeral Home <span style=\"background: LightGoldenRodYellow; margin: 4px; border: 1px solid khaki\"> (<a href=\"CodeSystem-vrdr-organization-type-cs.html\">Local Organization Type</a>#funeralhome)</span></p><p><b>name</b>: Colonial Memorial Mortuary</p><p><b>address</b>: 2128 South State Salt Lake City UT 84115 US </p></div>"
      },
      "active" : true,
      "type" : [{
        "coding" : [{
          "system" : "http://hl7.org/fhir/us/vrdr/CodeSystem/vrdr-organization-type-cs",
          "code" : "funeralhome"
        }]
      }],
      "name" : "Colonial Memorial Mortuary",
      "address" : [{
        "line" : ["2128 South State"],
        "city" : "Salt Lake City",
        "district" : "Salt Lake",
        "state" : "UT",
        "postalCode" : "84115",
        "country" : "US"
      }]
    }
  },
  {
    "fullUrl" : "http://www.example.org/fhir/Observation/MannerOfDeathUT-Example1",
    "resource" : {
      "resourceType" : "Observation",
      "id" : "MannerOfDeathUT-Example1",
      "meta" : {
        "profile" : ["http://hl7.org/fhir/us/vrdr/StructureDefinition/vrdr-manner-of-death"]
      },
      "text" : {
        "status" : "generated",
        "div" : "<div xmlns=\"http://www.w3.org/1999/xhtml\"><p><b>Generated Narrative: Observation</b><a name=\"MannerOfDeathUT-Example1\"> </a></p><div style=\"display: inline-block; background-color: #d9e0e7; padding: 6px; margin: 4px; border: 1px solid #8da1b4; border-radius: 5px; line-height: 60%\"><p style=\"margin-bottom: 0px\">Resource Observation &quot;MannerOfDeathUT-Example1&quot; </p><p style=\"margin-bottom: 0px\">Profile: <a href=\"StructureDefinition-vrdr-manner-of-death.html\">Manner of Death</a></p></div><p><b>status</b>: final</p><p><b>code</b>: Manner of death <span style=\"background: LightGoldenRodYellow; margin: 4px; border: 1px solid khaki\"> (<a href=\"https://loinc.org/\">LOINC</a>#69449-7)</span></p><p><b>subject</b>: <a href=\"#Patient_DecedentUT-Example1\">See above (Patient/DecedentUT-Example1)</a></p><p><b>performer</b>: <a href=\"#Practitioner_PractitionerUT-Certifier\">See above (Practitioner/PractitionerUT-Certifier)</a></p><p><b>value</b>: Patient awaiting investigation <span style=\"background: LightGoldenRodYellow; margin: 4px; border: 1px solid khaki\"> (<a href=\"https://browser.ihtsdotools.org/\">SNOMED CT</a>#185973002)</span></p></div>"
      },
      "status" : "final",
      "code" : {
        "coding" : [{
          "system" : "http://loinc.org",
          "code" : "69449-7"
        }]
      },
      "subject" : {
        "reference" : "Patient/DecedentUT-Example1"
      },
      "performer" : [{
        "reference" : "Practitioner/PractitionerUT-Certifier"
      }],
      "valueCodeableConcept" : {
        "coding" : [{
          "system" : "http://snomed.info/sct",
          "code" : "185973002",
          "display" : "Patient awaiting investigation"
        }]
      }
    }
  },
  {
    "fullUrl" : "http://www.example.org/fhir/Observation/TobaccoUseUT-Example1",
    "resource" : {
      "resourceType" : "Observation",
      "id" : "TobaccoUseUT-Example1",
      "meta" : {
        "profile" : ["http://hl7.org/fhir/us/vrdr/StructureDefinition/vrdr-tobacco-use-contributed-to-death"]
      },
      "text" : {
        "status" : "generated",
        "div" : "<div xmlns=\"http://www.w3.org/1999/xhtml\"><p><b>Generated Narrative: Observation</b><a name=\"TobaccoUseUT-Example1\"> </a></p><div style=\"display: inline-block; background-color: #d9e0e7; padding: 6px; margin: 4px; border: 1px solid #8da1b4; border-radius: 5px; line-height: 60%\"><p style=\"margin-bottom: 0px\">Resource Observation &quot;TobaccoUseUT-Example1&quot; </p><p style=\"margin-bottom: 0px\">Profile: <a href=\"StructureDefinition-vrdr-tobacco-use-contributed-to-death.html\">Tobacco Use Contributed To Death</a></p></div><p><b>status</b>: final</p><p><b>code</b>: Did tobacco use contribute to death <span style=\"background: LightGoldenRodYellow; margin: 4px; border: 1px solid khaki\"> (<a href=\"https://loinc.org/\">LOINC</a>#69443-0)</span></p><p><b>subject</b>: <a href=\"#Patient_DecedentUT-Example1\">See above (Patient/DecedentUT-Example1)</a></p><p><b>value</b>: No <span style=\"background: LightGoldenRodYellow; margin: 4px; border: 1px solid khaki\"> (<a href=\"https://browser.ihtsdotools.org/\">SNOMED CT</a>#373067005)</span></p></div>"
      },
      "status" : "final",
      "code" : {
        "coding" : [{
          "system" : "http://loinc.org",
          "code" : "69443-0",
          "display" : "Did tobacco use contribute to death"
        }]
      },
      "subject" : {
        "reference" : "Patient/DecedentUT-Example1"
      },
      "valueCodeableConcept" : {
        "coding" : [{
          "system" : "http://snomed.info/sct",
          "code" : "373067005",
          "display" : "No"
        }]
      }
    }
  },
  {
    "fullUrl" : "http://www.example.org/fhir/Observation/InjuryIncidentUT-Example1",
    "resource" : {
      "resourceType" : "Observation",
      "id" : "InjuryIncidentUT-Example1",
      "meta" : {
        "profile" : ["http://hl7.org/fhir/us/vrdr/StructureDefinition/vrdr-injury-incident"]
      },
      "text" : {
        "status" : "generated",
        "div" : "<div xmlns=\"http://www.w3.org/1999/xhtml\"><p><b>Generated Narrative: Observation</b><a name=\"InjuryIncidentUT-Example1\"> </a></p><div style=\"display: inline-block; background-color: #d9e0e7; padding: 6px; margin: 4px; border: 1px solid #8da1b4; border-radius: 5px; line-height: 60%\"><p style=\"margin-bottom: 0px\">Resource Observation &quot;InjuryIncidentUT-Example1&quot; </p><p style=\"margin-bottom: 0px\">Profile: <a href=\"StructureDefinition-vrdr-injury-incident.html\">Injury Incident</a></p></div><p><b>status</b>: final</p><p><b>code</b>: Injury incident description Narrative <span style=\"background: LightGoldenRodYellow; margin: 4px; border: 1px solid khaki\"> (<a href=\"https://loinc.org/\">LOINC</a>#11374-6)</span></p><p><b>subject</b>: <a href=\"#Patient_DecedentUT-Example1\">See above (Patient/DecedentUT-Example1)</a></p><h3>Components</h3><table class=\"grid\"><tr><td style=\"display: none\">-</td><td><b>Code</b></td><td><b>Value[x]</b></td></tr><tr><td style=\"display: none\">*</td><td>Did death result from injury at work <span style=\"background: LightGoldenRodYellow; margin: 4px; border: 1px solid khaki\"> (<a href=\"https://loinc.org/\">LOINC</a>#69444-8)</span></td><td>Unknown <span style=\"background: LightGoldenRodYellow; margin: 4px; border: 1px solid khaki\"> (<a href=\"http://terminology.hl7.org/6.0.2/CodeSystem-v3-NullFlavor.html\">NullFlavor</a>#UNK)</span></td></tr></table></div>"
      },
      "status" : "final",
      "code" : {
        "coding" : [{
          "system" : "http://loinc.org",
          "code" : "11374-6"
        }]
      },
      "subject" : {
        "reference" : "Patient/DecedentUT-Example1"
      },
      "component" : [{
        "code" : {
          "coding" : [{
            "system" : "http://loinc.org",
            "code" : "69444-8"
          }]
        },
        "valueCodeableConcept" : {
          "coding" : [{
            "system" : "http://terminology.hl7.org/CodeSystem/v3-NullFlavor",
            "code" : "UNK",
            "display" : "Unknown"
          }]
        }
      }]
    }
  },
  {
    "fullUrl" : "http://www.example.org/fhir/Observation/EmergingIssuesUT-Example1",
    "resource" : {
      "resourceType" : "Observation",
      "id" : "EmergingIssuesUT-Example1",
      "meta" : {
        "profile" : ["http://hl7.org/fhir/us/vr-common-library/StructureDefinition/Observation-emerging-issues-vr"]
      },
      "text" : {
        "status" : "generated",
        "div" : "<div xmlns=\"http://www.w3.org/1999/xhtml\"><p><b>Generated Narrative: Observation</b><a name=\"EmergingIssuesUT-Example1\"> </a></p><div style=\"display: inline-block; background-color: #d9e0e7; padding: 6px; margin: 4px; border: 1px solid #8da1b4; border-radius: 5px; line-height: 60%\"><p style=\"margin-bottom: 0px\">Resource Observation &quot;EmergingIssuesUT-Example1&quot; </p><p style=\"margin-bottom: 0px\">Profile: <a href=\"https://build.fhir.org/ig/HL7/vr-common-library//StructureDefinition-Observation-emerging-issues-vr.html\">Observation - Emerging Issues Vital Records</a></p></div><p><b>status</b>: final</p><p><b>code</b>: Emerging Issues <span style=\"background: LightGoldenRodYellow; margin: 4px; border: 1px solid khaki\"> (<a href=\"https://build.fhir.org/ig/HL7/vr-common-library//CodeSystem-CodeSystem-local-observation-codes-vr.html\">Local Observation Codes Vital Records</a>#emergingissues)</span></p><p><b>subject</b>: <a href=\"#Patient_DecedentUT-Example1\">See above (Patient/DecedentUT-Example1)</a></p><h3>Components</h3><table class=\"grid\"><tr><td style=\"display: none\">-</td><td><b>Code</b></td><td><b>Value[x]</b></td></tr><tr><td style=\"display: none\">*</td><td>EmergingIssue20 <span style=\"background: LightGoldenRodYellow; margin: 4px; border: 1px solid khaki\"> (<a href=\"https://build.fhir.org/ig/HL7/vr-common-library//CodeSystem-codesystem-vr-component.html\">Local Component Codes</a>#EmergingIssue20)</span></td><td>043-A-110234</td></tr></table></div>"
      },
      "status" : "final",
      "code" : {
        "coding" : [{
          "system" : "http://hl7.org/fhir/us/vr-common-library/CodeSystem/CodeSystem-local-observation-codes-vr",
          "code" : "emergingissues"
        }]
      },
      "subject" : {
        "reference" : "Patient/DecedentUT-Example1"
      },
      "component" : [{
        "code" : {
          "coding" : [{
            "system" : "http://hl7.org/fhir/us/vr-common-library/CodeSystem/codesystem-vr-component",
            "code" : "EmergingIssue20"
          }]
        },
        "valueString" : "043-A-110234"
      }]
    }
  },
  {
    "fullUrl" : "http://www.example.org/fhir/Location/DeathLocationUT-Example1",
    "resource" : {
      "resourceType" : "Location",
      "id" : "DeathLocationUT-Example1",
      "meta" : {
        "profile" : ["http://hl7.org/fhir/us/vrdr/StructureDefinition/vrdr-death-location"]
      },
      "text" : {
        "status" : "generated",
        "div" : "<div xmlns=\"http://www.w3.org/1999/xhtml\"><p><b>Generated Narrative: Location</b><a name=\"DeathLocationUT-Example1\"> </a></p><div style=\"display: inline-block; background-color: #d9e0e7; padding: 6px; margin: 4px; border: 1px solid #8da1b4; border-radius: 5px; line-height: 60%\"><p style=\"margin-bottom: 0px\">Resource Location &quot;DeathLocationUT-Example1&quot; </p><p style=\"margin-bottom: 0px\">Profile: <a href=\"StructureDefinition-vrdr-death-location.html\">Death Location</a></p></div><p><b>name</b>: Salt Lake Regional Medical Cen</p><p><b>description</b>: Facility</p><p><b>type</b>: Death Location <span style=\"background: LightGoldenRodYellow; margin: 4px; border: 1px solid khaki\"> (<a href=\"CodeSystem-vrdr-location-type-cs.html\">Location Type</a>#death)</span></p><p><b>address</b>: Salt Lake City UT </p></div>"
      },
      "name" : "Salt Lake Regional Medical Cen",
      "description" : "Facility",
      "type" : [{
        "coding" : [{
          "system" : "http://hl7.org/fhir/us/vrdr/CodeSystem/vrdr-location-type-cs",
          "code" : "death"
        }]
      }],
      "address" : {
        "city" : "Salt Lake City",
        "state" : "UT"
      }
    }
  },
  {
    "fullUrl" : "http://www.example.org/fhir/Location/DispositionLocationUT-Example1",
    "resource" : {
      "resourceType" : "Location",
      "id" : "DispositionLocationUT-Example1",
      "meta" : {
        "profile" : ["http://hl7.org/fhir/us/vrdr/StructureDefinition/vrdr-disposition-location"]
      },
      "text" : {
        "status" : "generated",
        "div" : "<div xmlns=\"http://www.w3.org/1999/xhtml\"><p><b>Generated Narrative: Location</b><a name=\"DispositionLocationUT-Example1\"> </a></p><div style=\"display: inline-block; background-color: #d9e0e7; padding: 6px; margin: 4px; border: 1px solid #8da1b4; border-radius: 5px; line-height: 60%\"><p style=\"margin-bottom: 0px\">Resource Location &quot;DispositionLocationUT-Example1&quot; </p><p style=\"margin-bottom: 0px\">Profile: <a href=\"StructureDefinition-vrdr-disposition-location.html\">Disposition Location</a></p></div><p><b>name</b>: Salt Lake City Cemetery</p><p><b>type</b>: Disposition Location <span style=\"background: LightGoldenRodYellow; margin: 4px; border: 1px solid khaki\"> (<a href=\"CodeSystem-vrdr-location-type-cs.html\">Location Type</a>#disposition)</span></p><p><b>address</b>: Salt Lake City UT US </p></div>"
      },
      "name" : "Salt Lake City Cemetery",
      "type" : [{
        "coding" : [{
          "system" : "http://hl7.org/fhir/us/vrdr/CodeSystem/vrdr-location-type-cs",
          "code" : "disposition"
        }]
      }],
      "address" : {
        "city" : "Salt Lake City",
        "state" : "UT",
        "country" : "US"
      }
    }
  },
  {
    "fullUrl" : "http://www.example.org/fhir/Observation/MilitaryServiceUT-Example1",
    "resource" : {
      "resourceType" : "Observation",
      "id" : "MilitaryServiceUT-Example1",
      "meta" : {
        "profile" : ["http://hl7.org/fhir/us/vrdr/StructureDefinition/vrdr-decedent-military-service"]
      },
      "text" : {
        "status" : "generated",
        "div" : "<div xmlns=\"http://www.w3.org/1999/xhtml\"><p><b>Generated Narrative: Observation</b><a name=\"MilitaryServiceUT-Example1\"> </a></p><div style=\"display: inline-block; background-color: #d9e0e7; padding: 6px; margin: 4px; border: 1px solid #8da1b4; border-radius: 5px; line-height: 60%\"><p style=\"margin-bottom: 0px\">Resource Observation &quot;MilitaryServiceUT-Example1&quot; </p><p style=\"margin-bottom: 0px\">Profile: <a href=\"StructureDefinition-vrdr-decedent-military-service.html\">Decedent Military Service</a></p></div><p><b>status</b>: final</p><p><b>code</b>: Military service Narrative <span style=\"background: LightGoldenRodYellow; margin: 4px; border: 1px solid khaki\"> (<a href=\"https://loinc.org/\">LOINC</a>#55280-2)</span></p><p><b>subject</b>: <a href=\"#Patient_DecedentUT-Example1\">See above (Patient/DecedentUT-Example1)</a></p><p><b>value</b>: No <span style=\"background: LightGoldenRodYellow; margin: 4px; border: 1px solid khaki\"> (<a href=\"http://hl7.org/fhir/R4/v2/0136/index.html\">v2 Y/N Indicator</a>#N)</span></p></div>"
      },
      "status" : "final",
      "code" : {
        "coding" : [{
          "system" : "http://loinc.org",
          "code" : "55280-2"
        }]
      },
      "subject" : {
        "reference" : "Patient/DecedentUT-Example1"
      },
      "valueCodeableConcept" : {
        "coding" : [{
          "system" : "http://terminology.hl7.org/CodeSystem/v2-0136",
          "code" : "N",
          "display" : "No"
        }]
      }
    }
  },
  {
    "fullUrl" : "http://www.example.org/fhir/Observation/AgeUT-Example1",
    "resource" : {
      "resourceType" : "Observation",
      "id" : "AgeUT-Example1",
      "meta" : {
        "profile" : ["http://hl7.org/fhir/us/vrdr/StructureDefinition/vrdr-decedent-age"]
      },
      "text" : {
        "status" : "generated",
        "div" : "<div xmlns=\"http://www.w3.org/1999/xhtml\"><p><b>Generated Narrative: Observation</b><a name=\"AgeUT-Example1\"> </a></p><div style=\"display: inline-block; background-color: #d9e0e7; padding: 6px; margin: 4px; border: 1px solid #8da1b4; border-radius: 5px; line-height: 60%\"><p style=\"margin-bottom: 0px\">Resource Observation &quot;AgeUT-Example1&quot; </p><p style=\"margin-bottom: 0px\">Profile: <a href=\"StructureDefinition-vrdr-decedent-age.html\">Decedent Age</a></p></div><p><b>status</b>: final</p><p><b>code</b>: Age at death <span style=\"background: LightGoldenRodYellow; margin: 4px; border: 1px solid khaki\"> (<a href=\"https://loinc.org/\">LOINC</a>#39016-1)</span></p><p><b>subject</b>: <a href=\"#Patient_DecedentUT-Example1\">See above (Patient/DecedentUT-Example1)</a></p><p><b>value</b>: 10 Months<span style=\"background: LightGoldenRodYellow\"> (Details: UCUM code mo = 'mo')</span></p></div>"
      },
      "status" : "final",
      "code" : {
        "coding" : [{
          "system" : "http://loinc.org",
          "code" : "39016-1"
        }]
      },
      "subject" : {
        "reference" : "Patient/DecedentUT-Example1"
      },
      "valueQuantity" : {
        "extension" : [{
          "url" : "http://hl7.org/fhir/us/vr-common-library/StructureDefinition/BypassEditFlag",
          "valueCodeableConcept" : {
            "coding" : [{
              "system" : "http://hl7.org/fhir/us/vr-common-library/CodeSystem/CodeSystem-vr-edit-flags",
              "code" : "0",
              "display" : "Edit Passed"
            }]
          }
        }],
        "value" : 10,
        "unit" : "Months",
        "system" : "http://unitsofmeasure.org",
        "code" : "mo"
      }
    }
  },
  {
    "fullUrl" : "http://www.example.org/fhir/Observation/UsualWorkUT-Example1",
    "resource" : {
      "resourceType" : "Observation",
      "id" : "UsualWorkUT-Example1",
      "meta" : {
        "profile" : ["http://hl7.org/fhir/us/vrdr/StructureDefinition/vrdr-decedent-usual-work"]
      },
      "text" : {
        "status" : "generated",
        "div" : "<div xmlns=\"http://www.w3.org/1999/xhtml\"><p><b>Generated Narrative: Observation</b><a name=\"UsualWorkUT-Example1\"> </a></p><div style=\"display: inline-block; background-color: #d9e0e7; padding: 6px; margin: 4px; border: 1px solid #8da1b4; border-radius: 5px; line-height: 60%\"><p style=\"margin-bottom: 0px\">Resource Observation &quot;UsualWorkUT-Example1&quot; </p><p style=\"margin-bottom: 0px\">Profile: <a href=\"StructureDefinition-vrdr-decedent-usual-work.html\">Decedent Usual Work</a></p></div><p><b>status</b>: final</p><p><b>code</b>: History of Usual occupation <span style=\"background: LightGoldenRodYellow; margin: 4px; border: 1px solid khaki\"> (<a href=\"https://loinc.org/\">LOINC</a>#21843-8)</span></p><p><b>subject</b>: <a href=\"#Patient_DecedentUT-Example1\">See above (Patient/DecedentUT-Example1)</a></p><p><b>value</b>: Infant <span style=\"background: LightGoldenRodYellow; margin: 4px; border: 1px solid khaki\"> ()</span></p><h3>Components</h3><table class=\"grid\"><tr><td style=\"display: none\">-</td><td><b>Code</b></td><td><b>Value[x]</b></td></tr><tr><td style=\"display: none\">*</td><td>History of Usual industry <span style=\"background: LightGoldenRodYellow; margin: 4px; border: 1px solid khaki\"> (<a href=\"https://loinc.org/\">LOINC</a>#21844-6)</span></td><td>Never Worked <span style=\"background: LightGoldenRodYellow; margin: 4px; border: 1px solid khaki\"> ()</span></td></tr></table></div>"
      },
      "status" : "final",
      "code" : {
        "coding" : [{
          "system" : "http://loinc.org",
          "code" : "21843-8"
        }]
      },
      "subject" : {
        "reference" : "Patient/DecedentUT-Example1"
      },
      "valueCodeableConcept" : {
        "text" : "Infant"
      },
      "component" : [{
        "code" : {
          "coding" : [{
            "system" : "http://loinc.org",
            "code" : "21844-6"
          }]
        },
        "valueCodeableConcept" : {
          "text" : "Never Worked"
        }
      }]
    }
  },
  {
    "fullUrl" : "http://www.example.org/fhir/Observation/DispositionMethodUT-Example1",
    "resource" : {
      "resourceType" : "Observation",
      "id" : "DispositionMethodUT-Example1",
      "meta" : {
        "profile" : ["http://hl7.org/fhir/us/vrdr/StructureDefinition/vrdr-decedent-disposition-method"]
      },
      "text" : {
        "status" : "generated",
        "div" : "<div xmlns=\"http://www.w3.org/1999/xhtml\"><p><b>Generated Narrative: Observation</b><a name=\"DispositionMethodUT-Example1\"> </a></p><div style=\"display: inline-block; background-color: #d9e0e7; padding: 6px; margin: 4px; border: 1px solid #8da1b4; border-radius: 5px; line-height: 60%\"><p style=\"margin-bottom: 0px\">Resource Observation &quot;DispositionMethodUT-Example1&quot; </p><p style=\"margin-bottom: 0px\">Profile: <a href=\"StructureDefinition-vrdr-decedent-disposition-method.html\">Decedent Disposition Method</a></p></div><p><b>status</b>: final</p><p><b>code</b>: Body disposition method <span style=\"background: LightGoldenRodYellow; margin: 4px; border: 1px solid khaki\"> (<a href=\"https://loinc.org/\">LOINC</a>#80905-3)</span></p><p><b>subject</b>: <a href=\"#Patient_DecedentUT-Example1\">See above (Patient/DecedentUT-Example1)</a></p><p><b>value</b>: Burial <span style=\"background: LightGoldenRodYellow; margin: 4px; border: 1px solid khaki\"> (<a href=\"https://browser.ihtsdotools.org/\">SNOMED CT</a>#449971000124106)</span></p></div>"
      },
      "status" : "final",
      "code" : {
        "coding" : [{
          "system" : "http://loinc.org",
          "code" : "80905-3"
        }]
      },
      "subject" : {
        "reference" : "Patient/DecedentUT-Example1"
      },
      "valueCodeableConcept" : {
        "coding" : [{
          "system" : "http://snomed.info/sct",
          "code" : "449971000124106",
          "display" : "Burial"
        }]
      }
    }
  }]
}